key_resp.keys,key_resp.rt,key_resp_3.keys,key_resp_3.rt,key_resp_2.keys,key_resp_2.rt,trials.thisRepN,trials.thisTrialN,trials.thisN,trials.thisIndex,trials.ran,image_left,image_right,trial_num,participant,session,date,expName,psychopyVersion,OS,frameRate,key_resp_4.keys,key_resp_4.rt,trials_2.thisRepN,trials_2.thisTrialN,trials_2.thisN,trials_2.thisIndex,trials_2.ran
space,1.26729,space,1.14143,m,27.865855,0,0,0,0,1,flowers/images/125.jpg,flowers/images/165.jpg,1,Beri,001,2020-11-20_18h04.26.235,test1,2020.2.5,Win32,60,,,,,,,
,,,,m,1.040305,0,1,1,1,1,flowers/images/168.jpg,flowers/images/195.jpg,2,Beri,001,2020-11-20_18h04.26.235,test1,2020.2.5,Win32,60,,,,,,,
,,,,z,1.807325,0,2,2,2,1,flowers/images/114.jpg,flowers/images/131.jpg,3,Beri,001,2020-11-20_18h04.26.235,test1,2020.2.5,Win32,60,,,,,,,
,,,,m,2.1815,0,3,3,3,1,flowers/images/110.jpg,flowers/images/241.jpg,4,Beri,001,2020-11-20_18h04.26.235,test1,2020.2.5,Win32,60,,,,,,,
,,,,z,1.16609,0,4,4,4,1,flowers/images/157.jpg,flowers/images/170.jpg,5,Beri,001,2020-11-20_18h04.26.235,test1,2020.2.5,Win32,60,,,,,,,
,,,,m,1.61394,0,5,5,5,1,flowers/images/291.jpg,flowers/images/302.jpg,6,Beri,001,2020-11-20_18h04.26.235,test1,2020.2.5,Win32,60,,,,,,,
,,,,z,1.78786,0,6,6,6,1,flowers/images/335.jpg,flowers/images/272.jpg,7,Beri,001,2020-11-20_18h04.26.235,test1,2020.2.5,Win32,60,,,,,,,
,,,,z,1.087645,0,7,7,7,1,flowers/images/122.jpg,flowers/images/72.jpg,8,Beri,001,2020-11-20_18h04.26.235,test1,2020.2.5,Win32,60,,,,,,,
,,,,m,8.764215,0,8,8,8,1,flowers/images/240.jpg,flowers/images/67.jpg,9,Beri,001,2020-11-20_18h04.26.235,test1,2020.2.5,Win32,60,,,,,,,
,,,,z,1.91439,0,9,9,9,1,flowers/images/324.jpg,flowers/images/180.jpg,10,Beri,001,2020-11-20_18h04.26.235,test1,2020.2.5,Win32,60,,,,,,,
,,,,m,3.0861,0,10,10,10,1,flowers/images/148.jpg,flowers/images/275.jpg,11,Beri,001,2020-11-20_18h04.26.235,test1,2020.2.5,Win32,60,,,,,,,
,,,,z,11.020685,0,11,11,11,1,flowers/images/61.jpg,flowers/images/2.jpg,12,Beri,001,2020-11-20_18h04.26.235,test1,2020.2.5,Win32,60,,,,,,,
,,,,m,2.268515,0,12,12,12,1,flowers/images/20.jpg,flowers/images/378.jpg,13,Beri,001,2020-11-20_18h04.26.235,test1,2020.2.5,Win32,60,,,,,,,
,,,,z,1.358875,0,13,13,13,1,flowers/images/181.jpg,flowers/images/363.jpg,14,Beri,001,2020-11-20_18h04.26.235,test1,2020.2.5,Win32,60,,,,,,,
,,,,m,1.026605,0,14,14,14,1,flowers/images/87.jpg,flowers/images/187.jpg,15,Beri,001,2020-11-20_18h04.26.235,test1,2020.2.5,Win32,60,,,,,,,
,,,,m,2.03094,0,15,15,15,1,flowers/images/150.jpg,flowers/images/281.jpg,16,Beri,001,2020-11-20_18h04.26.235,test1,2020.2.5,Win32,60,,,,,,,
,,,,z,1.122925,0,16,16,16,1,flowers/images/112.jpg,flowers/images/176.jpg,17,Beri,001,2020-11-20_18h04.26.235,test1,2020.2.5,Win32,60,,,,,,,
,,,,m,1.99379,0,17,17,17,1,flowers/images/236.jpg,flowers/images/243.jpg,18,Beri,001,2020-11-20_18h04.26.235,test1,2020.2.5,Win32,60,,,,,,,
,,,,z,1.67529,0,18,18,18,1,flowers/images/133.jpg,flowers/images/247.jpg,19,Beri,001,2020-11-20_18h04.26.235,test1,2020.2.5,Win32,60,,,,,,,
,,,,z,2.86294,0,19,19,19,1,flowers/images/136.jpg,flowers/images/164.jpg,20,Beri,001,2020-11-20_18h04.26.235,test1,2020.2.5,Win32,60,,,,,,,
,,,,z,1.405015,0,20,20,20,1,flowers/images/185.jpg,flowers/images/211.jpg,21,Beri,001,2020-11-20_18h04.26.235,test1,2020.2.5,Win32,60,,,,,,,
,,,,m,3.373735,0,21,21,21,1,flowers/images/118.jpg,flowers/images/371.jpg,22,Beri,001,2020-11-20_18h04.26.235,test1,2020.2.5,Win32,60,,,,,,,
,,,,z,1.392335,0,22,22,22,1,flowers/images/177.jpg,flowers/images/5.jpg,23,Beri,001,2020-11-20_18h04.26.235,test1,2020.2.5,Win32,60,,,,,,,
,,,,m,1.236605,0,23,23,23,1,flowers/images/91.jpg,flowers/images/215.jpg,24,Beri,001,2020-11-20_18h04.26.235,test1,2020.2.5,Win32,60,,,,,,,
,,,,m,0.949615,0,24,24,24,1,flowers/images/277.jpg,flowers/images/11.jpg,25,Beri,001,2020-11-20_18h04.26.235,test1,2020.2.5,Win32,60,,,,,,,
,,,,z,0.925765,0,25,25,25,1,flowers/images/197.jpg,flowers/images/25.jpg,26,Beri,001,2020-11-20_18h04.26.235,test1,2020.2.5,Win32,60,,,,,,,
,,,,m,0.744395,0,26,26,26,1,flowers/images/131.jpg,flowers/images/63.jpg,27,Beri,001,2020-11-20_18h04.26.235,test1,2020.2.5,Win32,60,,,,,,,
,,,,z,0.68522,0,27,27,27,1,flowers/images/106.jpg,flowers/images/221.jpg,28,Beri,001,2020-11-20_18h04.26.235,test1,2020.2.5,Win32,60,,,,,,,
,,,,m,0.600175,0,28,28,28,1,flowers/images/295.jpg,flowers/images/307.jpg,29,Beri,001,2020-11-20_18h04.26.235,test1,2020.2.5,Win32,60,,,,,,,
,,,,m,1.28641,0,29,29,29,1,flowers/images/368.jpg,flowers/images/384.jpg,30,Beri,001,2020-11-20_18h04.26.235,test1,2020.2.5,Win32,60,,,,,,,
,,,,z,0.94369,0,30,30,30,1,flowers/images/96.jpg,flowers/images/140.jpg,31,Beri,001,2020-11-20_18h04.26.235,test1,2020.2.5,Win32,60,,,,,,,
,,,,z,2.66654,0,31,31,31,1,flowers/images/272.jpg,flowers/images/59.jpg,32,Beri,001,2020-11-20_18h04.26.235,test1,2020.2.5,Win32,60,,,,,,,
,,,,m,1.10948,0,32,32,32,1,flowers/images/389.jpg,flowers/images/110.jpg,33,Beri,001,2020-11-20_18h04.26.235,test1,2020.2.5,Win32,60,,,,,,,
,,,,m,0.84036,0,33,33,33,1,flowers/images/237.jpg,flowers/images/387.jpg,34,Beri,001,2020-11-20_18h04.26.235,test1,2020.2.5,Win32,60,,,,,,,
,,,,z,1.00486,0,34,34,34,1,flowers/images/35.jpg,flowers/images/142.jpg,35,Beri,001,2020-11-20_18h04.26.235,test1,2020.2.5,Win32,60,,,,,,,
,,,,z,2.25219,0,35,35,35,1,flowers/images/49.jpg,flowers/images/200.jpg,36,Beri,001,2020-11-20_18h04.26.235,test1,2020.2.5,Win32,60,,,,,,,
,,,,z,1.42322,0,36,36,36,1,flowers/images/142.jpg,flowers/images/328.jpg,37,Beri,001,2020-11-20_18h04.26.235,test1,2020.2.5,Win32,60,,,,,,,
,,,,m,6.602985,0,37,37,37,1,flowers/images/339.jpg,flowers/images/264.jpg,38,Beri,001,2020-11-20_18h04.26.235,test1,2020.2.5,Win32,60,,,,,,,
,,,,m,0.900315,0,38,38,38,1,flowers/images/394.jpg,flowers/images/266.jpg,39,Beri,001,2020-11-20_18h04.26.235,test1,2020.2.5,Win32,60,,,,,,,
,,,,m,0.922875,0,39,39,39,1,flowers/images/89.jpg,flowers/images/298.jpg,40,Beri,001,2020-11-20_18h04.26.235,test1,2020.2.5,Win32,60,,,,,,,
,,,,m,1.69109,0,40,40,40,1,flowers/images/325.jpg,flowers/images/47.jpg,41,Beri,001,2020-11-20_18h04.26.235,test1,2020.2.5,Win32,60,,,,,,,
,,,,z,1.042215,0,41,41,41,1,flowers/images/40.jpg,flowers/images/162.jpg,42,Beri,001,2020-11-20_18h04.26.235,test1,2020.2.5,Win32,60,,,,,,,
,,,,z,1.25883,0,42,42,42,1,flowers/images/266.jpg,flowers/images/181.jpg,43,Beri,001,2020-11-20_18h04.26.235,test1,2020.2.5,Win32,60,,,,,,,
,,,,m,2.20958,0,43,43,43,1,flowers/images/100.jpg,flowers/images/396.jpg,44,Beri,001,2020-11-20_18h04.26.235,test1,2020.2.5,Win32,60,,,,,,,
,,,,z,2.09755,0,44,44,44,1,flowers/images/144.jpg,flowers/images/231.jpg,45,Beri,001,2020-11-20_18h04.26.235,test1,2020.2.5,Win32,60,,,,,,,
,,,,m,1.16169,0,45,45,45,1,flowers/images/289.jpg,flowers/images/202.jpg,46,Beri,001,2020-11-20_18h04.26.235,test1,2020.2.5,Win32,60,,,,,,,
,,,,m,1.06398,0,46,46,46,1,flowers/images/178.jpg,flowers/images/86.jpg,47,Beri,001,2020-11-20_18h04.26.235,test1,2020.2.5,Win32,60,,,,,,,
,,,,z,0.955145,0,47,47,47,1,flowers/images/360.jpg,flowers/images/393.jpg,48,Beri,001,2020-11-20_18h04.26.235,test1,2020.2.5,Win32,60,,,,,,,
,,,,m,0.834815,0,48,48,48,1,flowers/images/108.jpg,flowers/images/288.jpg,49,Beri,001,2020-11-20_18h04.26.235,test1,2020.2.5,Win32,60,,,,,,,
,,,,m,1.24271,0,49,49,49,1,flowers/images/165.jpg,flowers/images/154.jpg,50,Beri,001,2020-11-20_18h04.26.235,test1,2020.2.5,Win32,60,,,,,,,
,,,,z,0.84514,0,50,50,50,1,flowers/images/27.jpg,flowers/images/121.jpg,51,Beri,001,2020-11-20_18h04.26.235,test1,2020.2.5,Win32,60,,,,,,,
,,,,z,0.626505,0,51,51,51,1,flowers/images/302.jpg,flowers/images/203.jpg,52,Beri,001,2020-11-20_18h04.26.235,test1,2020.2.5,Win32,60,,,,,,,
,,,,m,0.75078,0,52,52,52,1,flowers/images/255.jpg,flowers/images/42.jpg,53,Beri,001,2020-11-20_18h04.26.235,test1,2020.2.5,Win32,60,,,,,,,
,,,,z,0.68136,0,53,53,53,1,flowers/images/31.jpg,flowers/images/289.jpg,54,Beri,001,2020-11-20_18h04.26.235,test1,2020.2.5,Win32,60,,,,,,,
,,,,z,0.8124,0,54,54,54,1,flowers/images/66.jpg,flowers/images/246.jpg,55,Beri,001,2020-11-20_18h04.26.235,test1,2020.2.5,Win32,60,,,,,,,
,,,,z,0.702485,0,55,55,55,1,flowers/images/355.jpg,flowers/images/115.jpg,56,Beri,001,2020-11-20_18h04.26.235,test1,2020.2.5,Win32,60,,,,,,,
,,,,z,1.148785,0,56,56,56,1,flowers/images/241.jpg,flowers/images/345.jpg,57,Beri,001,2020-11-20_18h04.26.235,test1,2020.2.5,Win32,60,,,,,,,
,,,,m,2.25009,0,57,57,57,1,flowers/images/296.jpg,flowers/images/37.jpg,58,Beri,001,2020-11-20_18h04.26.235,test1,2020.2.5,Win32,60,,,,,,,
,,,,m,2.08294,0,58,58,58,1,flowers/images/235.jpg,flowers/images/373.jpg,59,Beri,001,2020-11-20_18h04.26.235,test1,2020.2.5,Win32,60,,,,,,,
,,,,z,2.80414,0,59,59,59,1,flowers/images/173.jpg,flowers/images/93.jpg,60,Beri,001,2020-11-20_18h04.26.235,test1,2020.2.5,Win32,60,,,,,,,
,,,,z,2.459885,0,60,60,60,1,flowers/images/331.jpg,flowers/images/88.jpg,61,Beri,001,2020-11-20_18h04.26.235,test1,2020.2.5,Win32,60,,,,,,,
,,,,m,2.677345,0,61,61,61,1,flowers/images/134.jpg,flowers/images/127.jpg,62,Beri,001,2020-11-20_18h04.26.235,test1,2020.2.5,Win32,60,,,,,,,
,,,,z,0.899125,0,62,62,62,1,flowers/images/285.jpg,flowers/images/201.jpg,63,Beri,001,2020-11-20_18h04.26.235,test1,2020.2.5,Win32,60,,,,,,,
,,,,m,1.06608,0,63,63,63,1,flowers/images/151.jpg,flowers/images/52.jpg,64,Beri,001,2020-11-20_18h04.26.235,test1,2020.2.5,Win32,60,,,,,,,
,,,,m,0.968515,0,64,64,64,1,flowers/images/208.jpg,flowers/images/186.jpg,65,Beri,001,2020-11-20_18h04.26.235,test1,2020.2.5,Win32,60,,,,,,,
,,,,m,0.6799,0,65,65,65,1,flowers/images/80.jpg,flowers/images/124.jpg,66,Beri,001,2020-11-20_18h04.26.235,test1,2020.2.5,Win32,60,,,,,,,
,,,,z,1.22434,0,66,66,66,1,flowers/images/303.jpg,flowers/images/347.jpg,67,Beri,001,2020-11-20_18h04.26.235,test1,2020.2.5,Win32,60,,,,,,,
,,,,z,0.79141,0,67,67,67,1,flowers/images/6.jpg,flowers/images/262.jpg,68,Beri,001,2020-11-20_18h04.26.235,test1,2020.2.5,Win32,60,,,,,,,
,,,,m,0.995635,0,68,68,68,1,flowers/images/85.jpg,flowers/images/20.jpg,69,Beri,001,2020-11-20_18h04.26.235,test1,2020.2.5,Win32,60,,,,,,,
,,,,m,5.30346,0,69,69,69,1,flowers/images/392.jpg,flowers/images/15.jpg,70,Beri,001,2020-11-20_18h04.26.235,test1,2020.2.5,Win32,60,,,,,,,
,,,,z,0.878205,0,70,70,70,1,flowers/images/341.jpg,flowers/images/357.jpg,71,Beri,001,2020-11-20_18h04.26.235,test1,2020.2.5,Win32,60,,,,,,,
,,,,m,0.793365,0,71,71,71,1,flowers/images/293.jpg,flowers/images/158.jpg,72,Beri,001,2020-11-20_18h04.26.235,test1,2020.2.5,Win32,60,,,,,,,
,,,,z,0.633055,0,72,72,72,1,flowers/images/390.jpg,flowers/images/58.jpg,73,Beri,001,2020-11-20_18h04.26.235,test1,2020.2.5,Win32,60,,,,,,,
,,,,m,0.62767,0,73,73,73,1,flowers/images/82.jpg,flowers/images/16.jpg,74,Beri,001,2020-11-20_18h04.26.235,test1,2020.2.5,Win32,60,,,,,,,
,,,,m,0.83377,0,74,74,74,1,flowers/images/336.jpg,flowers/images/130.jpg,75,Beri,001,2020-11-20_18h04.26.235,test1,2020.2.5,Win32,60,,,,,,,
,,,,m,0.736955,0,75,75,75,1,flowers/images/160.jpg,flowers/images/105.jpg,76,Beri,001,2020-11-20_18h04.26.235,test1,2020.2.5,Win32,60,,,,,,,
,,,,z,0.639305,0,76,76,76,1,flowers/images/328.jpg,flowers/images/305.jpg,77,Beri,001,2020-11-20_18h04.26.235,test1,2020.2.5,Win32,60,,,,,,,
,,,,m,0.68325,0,77,77,77,1,flowers/images/180.jpg,flowers/images/249.jpg,78,Beri,001,2020-11-20_18h04.26.235,test1,2020.2.5,Win32,60,,,,,,,
,,,,m,0.647245,0,78,78,78,1,flowers/images/169.jpg,flowers/images/94.jpg,79,Beri,001,2020-11-20_18h04.26.235,test1,2020.2.5,Win32,60,,,,,,,
,,,,m,1.540715,0,79,79,79,1,flowers/images/145.jpg,flowers/images/277.jpg,80,Beri,001,2020-11-20_18h04.26.235,test1,2020.2.5,Win32,60,,,,,,,
,,,,m,1.62184,0,80,80,80,1,flowers/images/358.jpg,flowers/images/197.jpg,81,Beri,001,2020-11-20_18h04.26.235,test1,2020.2.5,Win32,60,,,,,,,
,,,,z,1.106925,0,81,81,81,1,flowers/images/71.jpg,flowers/images/128.jpg,82,Beri,001,2020-11-20_18h04.26.235,test1,2020.2.5,Win32,60,,,,,,,
,,,,z,1.576365,0,82,82,82,1,flowers/images/192.jpg,flowers/images/379.jpg,83,Beri,001,2020-11-20_18h04.26.235,test1,2020.2.5,Win32,60,,,,,,,
,,,,z,1.573855,0,83,83,83,1,flowers/images/189.jpg,flowers/images/271.jpg,84,Beri,001,2020-11-20_18h04.26.235,test1,2020.2.5,Win32,60,,,,,,,
,,,,z,1.130555,0,84,84,84,1,flowers/images/15.jpg,flowers/images/28.jpg,85,Beri,001,2020-11-20_18h04.26.235,test1,2020.2.5,Win32,60,,,,,,,
,,,,z,0.854565,0,85,85,85,1,flowers/images/171.jpg,flowers/images/97.jpg,86,Beri,001,2020-11-20_18h04.26.235,test1,2020.2.5,Win32,60,,,,,,,
,,,,m,1.24452,0,86,86,86,1,flowers/images/287.jpg,flowers/images/29.jpg,87,Beri,001,2020-11-20_18h04.26.235,test1,2020.2.5,Win32,60,,,,,,,
,,,,m,0.977815,0,87,87,87,1,flowers/images/381.jpg,flowers/images/356.jpg,88,Beri,001,2020-11-20_18h04.26.235,test1,2020.2.5,Win32,60,,,,,,,
,,,,z,1.628955,0,88,88,88,1,flowers/images/76.jpg,flowers/images/10.jpg,89,Beri,001,2020-11-20_18h04.26.235,test1,2020.2.5,Win32,60,,,,,,,
,,,,z,0.92287,0,89,89,89,1,flowers/images/239.jpg,flowers/images/226.jpg,90,Beri,001,2020-11-20_18h04.26.235,test1,2020.2.5,Win32,60,,,,,,,
,,,,z,1.74162,0,90,90,90,1,flowers/images/398.jpg,flowers/images/368.jpg,91,Beri,001,2020-11-20_18h04.26.235,test1,2020.2.5,Win32,60,,,,,,,
,,,,z,3.220665,0,91,91,91,1,flowers/images/21.jpg,flowers/images/53.jpg,92,Beri,001,2020-11-20_18h04.26.235,test1,2020.2.5,Win32,60,,,,,,,
,,,,z,2.45793,0,92,92,92,1,flowers/images/352.jpg,flowers/images/230.jpg,93,Beri,001,2020-11-20_18h04.26.235,test1,2020.2.5,Win32,60,,,,,,,
,,,,z,1.019345,0,93,93,93,1,flowers/images/54.jpg,flowers/images/280.jpg,94,Beri,001,2020-11-20_18h04.26.235,test1,2020.2.5,Win32,60,,,,,,,
,,,,z,0.833015,0,94,94,94,1,flowers/images/259.jpg,flowers/images/184.jpg,95,Beri,001,2020-11-20_18h04.26.235,test1,2020.2.5,Win32,60,,,,,,,
,,,,z,1.206565,0,95,95,95,1,flowers/images/7.jpg,flowers/images/137.jpg,96,Beri,001,2020-11-20_18h04.26.235,test1,2020.2.5,Win32,60,,,,,,,
,,,,m,1.113815,0,96,96,96,1,flowers/images/292.jpg,flowers/images/364.jpg,97,Beri,001,2020-11-20_18h04.26.235,test1,2020.2.5,Win32,60,,,,,,,
,,,,m,0.932645,0,97,97,97,1,flowers/images/84.jpg,flowers/images/245.jpg,98,Beri,001,2020-11-20_18h04.26.235,test1,2020.2.5,Win32,60,,,,,,,
,,,,z,3.620895,0,98,98,98,1,flowers/images/141.jpg,flowers/images/183.jpg,99,Beri,001,2020-11-20_18h04.26.235,test1,2020.2.5,Win32,60,,,,,,,
,,,,z,1.844435,0,99,99,99,1,flowers/images/45.jpg,flowers/images/375.jpg,100,Beri,001,2020-11-20_18h04.26.235,test1,2020.2.5,Win32,60,,,,,,,
,,,,z,3.372925,0,100,100,100,1,flowers/images/111.jpg,flowers/images/395.jpg,101,Beri,001,2020-11-20_18h04.26.235,test1,2020.2.5,Win32,60,,,,,,,
,,,,m,1.016,0,101,101,101,1,flowers/images/46.jpg,flowers/images/360.jpg,102,Beri,001,2020-11-20_18h04.26.235,test1,2020.2.5,Win32,60,,,,,,,
,,,,m,0.915425,0,102,102,102,1,flowers/images/399.jpg,flowers/images/4.jpg,103,Beri,001,2020-11-20_18h04.26.235,test1,2020.2.5,Win32,60,,,,,,,
,,,,m,2.58719,0,103,103,103,1,flowers/images/250.jpg,flowers/images/113.jpg,104,Beri,001,2020-11-20_18h04.26.235,test1,2020.2.5,Win32,60,,,,,,,
,,,,m,0.985645,0,104,104,104,1,flowers/images/359.jpg,flowers/images/283.jpg,105,Beri,001,2020-11-20_18h04.26.235,test1,2020.2.5,Win32,60,,,,,,,
,,,,m,2.749885,0,105,105,105,1,flowers/images/209.jpg,flowers/images/309.jpg,106,Beri,001,2020-11-20_18h04.26.235,test1,2020.2.5,Win32,60,,,,,,,
,,,,m,1.31867,0,106,106,106,1,flowers/images/219.jpg,flowers/images/285.jpg,107,Beri,001,2020-11-20_18h04.26.235,test1,2020.2.5,Win32,60,,,,,,,
,,,,m,0.843605,0,107,107,107,1,flowers/images/159.jpg,flowers/images/377.jpg,108,Beri,001,2020-11-20_18h04.26.235,test1,2020.2.5,Win32,60,,,,,,,
,,,,m,0.885405,0,108,108,108,1,flowers/images/17.jpg,flowers/images/365.jpg,109,Beri,001,2020-11-20_18h04.26.235,test1,2020.2.5,Win32,60,,,,,,,
,,,,m,0.887385,0,109,109,109,1,flowers/images/247.jpg,flowers/images/14.jpg,110,Beri,001,2020-11-20_18h04.26.235,test1,2020.2.5,Win32,60,,,,,,,
,,,,z,0.793015,0,110,110,110,1,flowers/images/357.jpg,flowers/images/229.jpg,111,Beri,001,2020-11-20_18h04.26.235,test1,2020.2.5,Win32,60,,,,,,,
,,,,z,1.042305,0,111,111,111,1,flowers/images/378.jpg,flowers/images/299.jpg,112,Beri,001,2020-11-20_18h04.26.235,test1,2020.2.5,Win32,60,,,,,,,
,,,,z,0.959565,0,112,112,112,1,flowers/images/191.jpg,flowers/images/304.jpg,113,Beri,001,2020-11-20_18h04.26.235,test1,2020.2.5,Win32,60,,,,,,,
,,,,m,1.0479,0,113,113,113,1,flowers/images/195.jpg,flowers/images/44.jpg,114,Beri,001,2020-11-20_18h04.26.235,test1,2020.2.5,Win32,60,,,,,,,
,,,,z,0.963745,0,114,114,114,1,flowers/images/126.jpg,flowers/images/161.jpg,115,Beri,001,2020-11-20_18h04.26.235,test1,2020.2.5,Win32,60,,,,,,,
,,,,m,1.395785,0,115,115,115,1,flowers/images/340.jpg,flowers/images/178.jpg,116,Beri,001,2020-11-20_18h04.26.235,test1,2020.2.5,Win32,60,,,,,,,
,,,,m,1.168395,0,116,116,116,1,flowers/images/201.jpg,flowers/images/21.jpg,117,Beri,001,2020-11-20_18h04.26.235,test1,2020.2.5,Win32,60,,,,,,,
,,,,m,0.991925,0,117,117,117,1,flowers/images/307.jpg,flowers/images/122.jpg,118,Beri,001,2020-11-20_18h04.26.235,test1,2020.2.5,Win32,60,,,,,,,
,,,,m,8.974215,0,118,118,118,1,flowers/images/194.jpg,flowers/images/23.jpg,119,Beri,001,2020-11-20_18h04.26.235,test1,2020.2.5,Win32,60,,,,,,,
,,,,z,1.635885,0,119,119,119,1,flowers/images/318.jpg,flowers/images/293.jpg,120,Beri,001,2020-11-20_18h04.26.235,test1,2020.2.5,Win32,60,,,,,,,
,,,,z,4.534765,0,120,120,120,1,flowers/images/69.jpg,flowers/images/327.jpg,121,Beri,001,2020-11-20_18h04.26.235,test1,2020.2.5,Win32,60,,,,,,,
,,,,z,1.46413,0,121,121,121,1,flowers/images/98.jpg,flowers/images/208.jpg,122,Beri,001,2020-11-20_18h04.26.235,test1,2020.2.5,Win32,60,,,,,,,
,,,,z,0.927115,0,122,122,122,1,flowers/images/184.jpg,flowers/images/96.jpg,123,Beri,001,2020-11-20_18h04.26.235,test1,2020.2.5,Win32,60,,,,,,,
,,,,z,0.63978,0,123,123,123,1,flowers/images/44.jpg,flowers/images/317.jpg,124,Beri,001,2020-11-20_18h04.26.235,test1,2020.2.5,Win32,60,,,,,,,
,,,,m,1.913305,0,124,124,124,1,flowers/images/222.jpg,flowers/images/9.jpg,125,Beri,001,2020-11-20_18h04.26.235,test1,2020.2.5,Win32,60,,,,,,,
,,,,m,1.06517,0,125,125,125,1,flowers/images/218.jpg,flowers/images/153.jpg,126,Beri,001,2020-11-20_18h04.26.235,test1,2020.2.5,Win32,60,,,,,,,
,,,,z,0.68297,0,126,126,126,1,flowers/images/275.jpg,flowers/images/295.jpg,127,Beri,001,2020-11-20_18h04.26.235,test1,2020.2.5,Win32,60,,,,,,,
,,,,m,0.78146,0,127,127,127,1,flowers/images/172.jpg,flowers/images/34.jpg,128,Beri,001,2020-11-20_18h04.26.235,test1,2020.2.5,Win32,60,,,,,,,
,,,,z,1.068075,0,128,128,128,1,flowers/images/345.jpg,flowers/images/89.jpg,129,Beri,001,2020-11-20_18h04.26.235,test1,2020.2.5,Win32,60,,,,,,,
,,,,z,1.5228,0,129,129,129,1,flowers/images/334.jpg,flowers/images/376.jpg,130,Beri,001,2020-11-20_18h04.26.235,test1,2020.2.5,Win32,60,,,,,,,
,,,,m,1.516065,0,130,130,130,1,flowers/images/93.jpg,flowers/images/6.jpg,131,Beri,001,2020-11-20_18h04.26.235,test1,2020.2.5,Win32,60,,,,,,,
,,,,z,1.108255,0,131,131,131,1,flowers/images/183.jpg,flowers/images/76.jpg,132,Beri,001,2020-11-20_18h04.26.235,test1,2020.2.5,Win32,60,,,,,,,
,,,,m,1.53167,0,132,132,132,1,flowers/images/304.jpg,flowers/images/224.jpg,133,Beri,001,2020-11-20_18h04.26.235,test1,2020.2.5,Win32,60,,,,,,,
,,,,m,0.938635,0,133,133,133,1,flowers/images/330.jpg,flowers/images/81.jpg,134,Beri,001,2020-11-20_18h04.26.235,test1,2020.2.5,Win32,60,,,,,,,
,,,,z,0.853155,0,134,134,134,1,flowers/images/147.jpg,flowers/images/36.jpg,135,Beri,001,2020-11-20_18h04.26.235,test1,2020.2.5,Win32,60,,,,,,,
,,,,m,0.88006,0,135,135,135,1,flowers/images/62.jpg,flowers/images/321.jpg,136,Beri,001,2020-11-20_18h04.26.235,test1,2020.2.5,Win32,60,,,,,,,
,,,,m,1.23197,0,136,136,136,1,flowers/images/367.jpg,flowers/images/311.jpg,137,Beri,001,2020-11-20_18h04.26.235,test1,2020.2.5,Win32,60,,,,,,,
,,,,m,1.00066,0,137,137,137,1,flowers/images/326.jpg,flowers/images/7.jpg,138,Beri,001,2020-11-20_18h04.26.235,test1,2020.2.5,Win32,60,,,,,,,
,,,,m,0.74126,0,138,138,138,1,flowers/images/28.jpg,flowers/images/382.jpg,139,Beri,001,2020-11-20_18h04.26.235,test1,2020.2.5,Win32,60,,,,,,,
,,,,m,1.069985,0,139,139,139,1,flowers/images/156.jpg,flowers/images/152.jpg,140,Beri,001,2020-11-20_18h04.26.235,test1,2020.2.5,Win32,60,,,,,,,
,,,,z,1.96189,0,140,140,140,1,flowers/images/113.jpg,flowers/images/167.jpg,141,Beri,001,2020-11-20_18h04.26.235,test1,2020.2.5,Win32,60,,,,,,,
,,,,m,1.233465,0,141,141,141,1,flowers/images/155.jpg,flowers/images/342.jpg,142,Beri,001,2020-11-20_18h04.26.235,test1,2020.2.5,Win32,60,,,,,,,
,,,,z,1.075745,0,142,142,142,1,flowers/images/213.jpg,flowers/images/353.jpg,143,Beri,001,2020-11-20_18h04.26.235,test1,2020.2.5,Win32,60,,,,,,,
,,,,z,0.85552,0,143,143,143,1,flowers/images/298.jpg,flowers/images/90.jpg,144,Beri,001,2020-11-20_18h04.26.235,test1,2020.2.5,Win32,60,,,,,,,
,,,,z,0.98714,0,144,144,144,1,flowers/images/217.jpg,flowers/images/240.jpg,145,Beri,001,2020-11-20_18h04.26.235,test1,2020.2.5,Win32,60,,,,,,,
,,,,m,1.94547,0,145,145,145,1,flowers/images/97.jpg,flowers/images/133.jpg,146,Beri,001,2020-11-20_18h04.26.235,test1,2020.2.5,Win32,60,,,,,,,
,,,,m,1.062725,0,146,146,146,1,flowers/images/354.jpg,flowers/images/310.jpg,147,Beri,001,2020-11-20_18h04.26.235,test1,2020.2.5,Win32,60,,,,,,,
,,,,z,1.538865,0,147,147,147,1,flowers/images/377.jpg,flowers/images/273.jpg,148,Beri,001,2020-11-20_18h04.26.235,test1,2020.2.5,Win32,60,,,,,,,
,,,,z,1.31545,0,148,148,148,1,flowers/images/121.jpg,flowers/images/294.jpg,149,Beri,001,2020-11-20_18h04.26.235,test1,2020.2.5,Win32,60,,,,,,,
,,,,z,1.451805,0,149,149,149,1,flowers/images/14.jpg,flowers/images/101.jpg,150,Beri,001,2020-11-20_18h04.26.235,test1,2020.2.5,Win32,60,,,,,,,
,,,,m,1.136675,0,150,150,150,1,flowers/images/321.jpg,flowers/images/51.jpg,151,Beri,001,2020-11-20_18h04.26.235,test1,2020.2.5,Win32,60,,,,,,,
,,,,m,1.108225,0,151,151,151,1,flowers/images/362.jpg,flowers/images/175.jpg,152,Beri,001,2020-11-20_18h04.26.235,test1,2020.2.5,Win32,60,,,,,,,
,,,,m,0.94608,0,152,152,152,1,flowers/images/203.jpg,flowers/images/248.jpg,153,Beri,001,2020-11-20_18h04.26.235,test1,2020.2.5,Win32,60,,,,,,,
,,,,m,1.776925,0,153,153,153,1,flowers/images/12.jpg,flowers/images/300.jpg,154,Beri,001,2020-11-20_18h04.26.235,test1,2020.2.5,Win32,60,,,,,,,
,,,,z,1.08258,0,154,154,154,1,flowers/images/365.jpg,flowers/images/218.jpg,155,Beri,001,2020-11-20_18h04.26.235,test1,2020.2.5,Win32,60,,,,,,,
,,,,z,1.135785,0,155,155,155,1,flowers/images/75.jpg,flowers/images/109.jpg,156,Beri,001,2020-11-20_18h04.26.235,test1,2020.2.5,Win32,60,,,,,,,
,,,,z,1.12366,0,156,156,156,1,flowers/images/127.jpg,flowers/images/333.jpg,157,Beri,001,2020-11-20_18h04.26.235,test1,2020.2.5,Win32,60,,,,,,,
,,,,m,1.289745,0,157,157,157,1,flowers/images/258.jpg,flowers/images/135.jpg,158,Beri,001,2020-11-20_18h04.26.235,test1,2020.2.5,Win32,60,,,,,,,
,,,,z,0.86348,0,158,158,158,1,flowers/images/343.jpg,flowers/images/65.jpg,159,Beri,001,2020-11-20_18h04.26.235,test1,2020.2.5,Win32,60,,,,,,,
,,,,m,5.11401,0,159,159,159,1,flowers/images/58.jpg,flowers/images/138.jpg,160,Beri,001,2020-11-20_18h04.26.235,test1,2020.2.5,Win32,60,,,,,,,
,,,,m,0.892615,0,160,160,160,1,flowers/images/94.jpg,flowers/images/234.jpg,161,Beri,001,2020-11-20_18h04.26.235,test1,2020.2.5,Win32,60,,,,,,,
,,,,z,0.898995,0,161,161,161,1,flowers/images/379.jpg,flowers/images/207.jpg,162,Beri,001,2020-11-20_18h04.26.235,test1,2020.2.5,Win32,60,,,,,,,
,,,,m,1.08011,0,162,162,162,1,flowers/images/128.jpg,flowers/images/79.jpg,163,Beri,001,2020-11-20_18h04.26.235,test1,2020.2.5,Win32,60,,,,,,,
,,,,z,0.76647,0,163,163,163,1,flowers/images/47.jpg,flowers/images/85.jpg,164,Beri,001,2020-11-20_18h04.26.235,test1,2020.2.5,Win32,60,,,,,,,
,,,,m,0.789815,0,164,164,164,1,flowers/images/19.jpg,flowers/images/191.jpg,165,Beri,001,2020-11-20_18h04.26.235,test1,2020.2.5,Win32,60,,,,,,,
,,,,z,0.795755,0,165,165,165,1,flowers/images/32.jpg,flowers/images/259.jpg,166,Beri,001,2020-11-20_18h04.26.235,test1,2020.2.5,Win32,60,,,,,,,
,,,,z,0.80845,0,166,166,166,1,flowers/images/323.jpg,flowers/images/284.jpg,167,Beri,001,2020-11-20_18h04.26.235,test1,2020.2.5,Win32,60,,,,,,,
,,,,m,0.9264,0,167,167,167,1,flowers/images/395.jpg,flowers/images/348.jpg,168,Beri,001,2020-11-20_18h04.26.235,test1,2020.2.5,Win32,60,,,,,,,
,,,,m,0.773695,0,168,168,168,1,flowers/images/279.jpg,flowers/images/370.jpg,169,Beri,001,2020-11-20_18h04.26.235,test1,2020.2.5,Win32,60,,,,,,,
,,,,z,2.28397,0,169,169,169,1,flowers/images/264.jpg,flowers/images/125.jpg,170,Beri,001,2020-11-20_18h04.26.235,test1,2020.2.5,Win32,60,,,,,,,
,,,,z,0.970655,0,170,170,170,1,flowers/images/77.jpg,flowers/images/318.jpg,171,Beri,001,2020-11-20_18h04.26.235,test1,2020.2.5,Win32,60,,,,,,,
,,,,z,0.817105,0,171,171,171,1,flowers/images/376.jpg,flowers/images/242.jpg,172,Beri,001,2020-11-20_18h04.26.235,test1,2020.2.5,Win32,60,,,,,,,
,,,,m,0.7465,0,172,172,172,1,flowers/images/351.jpg,flowers/images/132.jpg,173,Beri,001,2020-11-20_18h04.26.235,test1,2020.2.5,Win32,60,,,,,,,
,,,,z,0.66767,0,173,173,173,1,flowers/images/305.jpg,flowers/images/252.jpg,174,Beri,001,2020-11-20_18h04.26.235,test1,2020.2.5,Win32,60,,,,,,,
,,,,m,0.670875,0,174,174,174,1,flowers/images/29.jpg,flowers/images/217.jpg,175,Beri,001,2020-11-20_18h04.26.235,test1,2020.2.5,Win32,60,,,,,,,
,,,,m,1.298135,0,175,175,175,1,flowers/images/3.jpg,flowers/images/228.jpg,176,Beri,001,2020-11-20_18h04.26.235,test1,2020.2.5,Win32,60,,,,,,,
,,,,z,2.16275,0,176,176,176,1,flowers/images/199.jpg,flowers/images/330.jpg,177,Beri,001,2020-11-20_18h04.26.235,test1,2020.2.5,Win32,60,,,,,,,
,,,,m,0.806745,0,177,177,177,1,flowers/images/274.jpg,flowers/images/179.jpg,178,Beri,001,2020-11-20_18h04.26.235,test1,2020.2.5,Win32,60,,,,,,,
,,,,m,1.81431,0,178,178,178,1,flowers/images/346.jpg,flowers/images/290.jpg,179,Beri,001,2020-11-20_18h04.26.235,test1,2020.2.5,Win32,60,,,,,,,
,,,,z,0.637185,0,179,179,179,1,flowers/images/56.jpg,flowers/images/204.jpg,180,Beri,001,2020-11-20_18h04.26.235,test1,2020.2.5,Win32,60,,,,,,,
,,,,z,1.60213,0,180,180,180,1,flowers/images/179.jpg,flowers/images/114.jpg,181,Beri,001,2020-11-20_18h04.26.235,test1,2020.2.5,Win32,60,,,,,,,
,,,,m,0.81973,0,181,181,181,1,flowers/images/36.jpg,flowers/images/223.jpg,182,Beri,001,2020-11-20_18h04.26.235,test1,2020.2.5,Win32,60,,,,,,,
,,,,m,0.812275,0,182,182,182,1,flowers/images/344.jpg,flowers/images/168.jpg,183,Beri,001,2020-11-20_18h04.26.235,test1,2020.2.5,Win32,60,,,,,,,
,,,,m,1.3969,0,183,183,183,1,flowers/images/153.jpg,flowers/images/22.jpg,184,Beri,001,2020-11-20_18h04.26.235,test1,2020.2.5,Win32,60,,,,,,,
,,,,z,0.755225,0,184,184,184,1,flowers/images/39.jpg,flowers/images/323.jpg,185,Beri,001,2020-11-20_18h04.26.235,test1,2020.2.5,Win32,60,,,,,,,
,,,,z,0.98271,0,185,185,185,1,flowers/images/327.jpg,flowers/images/349.jpg,186,Beri,001,2020-11-20_18h04.26.235,test1,2020.2.5,Win32,60,,,,,,,
,,,,m,0.86685,0,186,186,186,1,flowers/images/81.jpg,flowers/images/30.jpg,187,Beri,001,2020-11-20_18h04.26.235,test1,2020.2.5,Win32,60,,,,,,,
,,,,z,0.710285,0,187,187,187,1,flowers/images/42.jpg,flowers/images/107.jpg,188,Beri,001,2020-11-20_18h04.26.235,test1,2020.2.5,Win32,60,,,,,,,
,,,,z,0.79077,0,188,188,188,1,flowers/images/18.jpg,flowers/images/358.jpg,189,Beri,001,2020-11-20_18h04.26.235,test1,2020.2.5,Win32,60,,,,,,,
,,,,m,0.83759,0,189,189,189,1,flowers/images/200.jpg,flowers/images/385.jpg,190,Beri,001,2020-11-20_18h04.26.235,test1,2020.2.5,Win32,60,,,,,,,
,,,,m,0.916645,0,190,190,190,1,flowers/images/369.jpg,flowers/images/233.jpg,191,Beri,001,2020-11-20_18h04.26.235,test1,2020.2.5,Win32,60,,,,,,,
,,,,m,2.019095,0,191,191,191,1,flowers/images/309.jpg,flowers/images/320.jpg,192,Beri,001,2020-11-20_18h04.26.235,test1,2020.2.5,Win32,60,,,,,,,
,,,,m,2.12196,0,192,192,192,1,flowers/images/64.jpg,flowers/images/303.jpg,193,Beri,001,2020-11-20_18h04.26.235,test1,2020.2.5,Win32,60,,,,,,,
,,,,z,3.163265,0,193,193,193,1,flowers/images/86.jpg,flowers/images/216.jpg,194,Beri,001,2020-11-20_18h04.26.235,test1,2020.2.5,Win32,60,,,,,,,
,,,,m,1.351045,0,194,194,194,1,flowers/images/260.jpg,flowers/images/361.jpg,195,Beri,001,2020-11-20_18h04.26.235,test1,2020.2.5,Win32,60,,,,,,,
,,,,z,1.34983,0,195,195,195,1,flowers/images/9.jpg,flowers/images/173.jpg,196,Beri,001,2020-11-20_18h04.26.235,test1,2020.2.5,Win32,60,,,,,,,
,,,,z,0.982525,0,196,196,196,1,flowers/images/22.jpg,flowers/images/41.jpg,197,Beri,001,2020-11-20_18h04.26.235,test1,2020.2.5,Win32,60,,,,,,,
,,,,m,1.658315,0,197,197,197,1,flowers/images/214.jpg,flowers/images/145.jpg,198,Beri,001,2020-11-20_18h04.26.235,test1,2020.2.5,Win32,60,,,,,,,
,,,,m,2.86478,0,198,198,198,1,flowers/images/72.jpg,flowers/images/308.jpg,199,Beri,001,2020-11-20_18h04.26.235,test1,2020.2.5,Win32,60,,,,,,,
,,,,m,1.85663,0,199,199,199,1,flowers/images/34.jpg,flowers/images/237.jpg,200,Beri,001,2020-11-20_18h04.26.235,test1,2020.2.5,Win32,60,,,,,,,
,,,,m,2.00506,,,,,,flowers/images/166.jpg,flowers/images/169.jpg,1,Beri,001,2020-11-20_18h04.26.235,test1,2020.2.5,Win32,60,space,2.56095,0,0,0,0,1
,,,,m,0.79708,,,,,,flowers/images/161.jpg,flowers/images/68.jpg,2,Beri,001,2020-11-20_18h04.26.235,test1,2020.2.5,Win32,60,,,0,1,1,1,1
,,,,m,0.82465,,,,,,flowers/images/319.jpg,flowers/images/341.jpg,3,Beri,001,2020-11-20_18h04.26.235,test1,2020.2.5,Win32,60,,,0,2,2,2,1
,,,,z,0.63917,,,,,,flowers/images/322.jpg,flowers/images/111.jpg,4,Beri,001,2020-11-20_18h04.26.235,test1,2020.2.5,Win32,60,,,0,3,3,3,1
,,,,z,1.886245,,,,,,flowers/images/2.jpg,flowers/images/95.jpg,5,Beri,001,2020-11-20_18h04.26.235,test1,2020.2.5,Win32,60,,,0,4,4,4,1
,,,,m,0.76682,,,,,,flowers/images/276.jpg,flowers/images/66.jpg,6,Beri,001,2020-11-20_18h04.26.235,test1,2020.2.5,Win32,60,,,0,5,5,5,1
,,,,z,1.93095,,,,,,flowers/images/116.jpg,flowers/images/206.jpg,7,Beri,001,2020-11-20_18h04.26.235,test1,2020.2.5,Win32,60,,,0,6,6,6,1
,,,,z,4.582555,,,,,,flowers/images/282.jpg,flowers/images/314.jpg,8,Beri,001,2020-11-20_18h04.26.235,test1,2020.2.5,Win32,60,,,0,7,7,7,1
,,,,m,1.18434,,,,,,flowers/images/261.jpg,flowers/images/260.jpg,9,Beri,001,2020-11-20_18h04.26.235,test1,2020.2.5,Win32,60,,,0,8,8,8,1
,,,,m,1.176115,,,,,,flowers/images/353.jpg,flowers/images/151.jpg,10,Beri,001,2020-11-20_18h04.26.235,test1,2020.2.5,Win32,60,,,0,9,9,9,1
,,,,z,1.75542,,,,,,flowers/images/216.jpg,flowers/images/156.jpg,11,Beri,001,2020-11-20_18h04.26.235,test1,2020.2.5,Win32,60,,,0,10,10,10,1
,,,,m,0.74411,,,,,,flowers/images/320.jpg,flowers/images/292.jpg,12,Beri,001,2020-11-20_18h04.26.235,test1,2020.2.5,Win32,60,,,0,11,11,11,1
,,,,z,1.27116,,,,,,flowers/images/149.jpg,flowers/images/279.jpg,13,Beri,001,2020-11-20_18h04.26.235,test1,2020.2.5,Win32,60,,,0,12,12,12,1
,,,,m,0.950225,,,,,,flowers/images/163.jpg,flowers/images/219.jpg,14,Beri,001,2020-11-20_18h04.26.235,test1,2020.2.5,Win32,60,,,0,13,13,13,1
,,,,m,0.883535,,,,,,flowers/images/10.jpg,flowers/images/232.jpg,15,Beri,001,2020-11-20_18h04.26.235,test1,2020.2.5,Win32,60,,,0,14,14,14,1
,,,,m,0.972465,,,,,,flowers/images/55.jpg,flowers/images/73.jpg,16,Beri,001,2020-11-20_18h04.26.235,test1,2020.2.5,Win32,60,,,0,15,15,15,1
,,,,z,3.915335,,,,,,flowers/images/123.jpg,flowers/images/189.jpg,17,Beri,001,2020-11-20_18h04.26.235,test1,2020.2.5,Win32,60,,,0,16,16,16,1
,,,,m,1.205615,,,,,,flowers/images/37.jpg,flowers/images/254.jpg,18,Beri,001,2020-11-20_18h04.26.235,test1,2020.2.5,Win32,60,,,0,17,17,17,1
,,,,z,1.085595,,,,,,flowers/images/230.jpg,flowers/images/166.jpg,19,Beri,001,2020-11-20_18h04.26.235,test1,2020.2.5,Win32,60,,,0,18,18,18,1
,,,,m,0.818115,,,,,,flowers/images/338.jpg,flowers/images/33.jpg,20,Beri,001,2020-11-20_18h04.26.235,test1,2020.2.5,Win32,60,,,0,19,19,19,1
,,,,z,0.72697,,,,,,flowers/images/337.jpg,flowers/images/193.jpg,21,Beri,001,2020-11-20_18h04.26.235,test1,2020.2.5,Win32,60,,,0,20,20,20,1
,,,,m,1.116765,,,,,,flowers/images/83.jpg,flowers/images/339.jpg,22,Beri,001,2020-11-20_18h04.26.235,test1,2020.2.5,Win32,60,,,0,21,21,21,1
,,,,m,2.50678,,,,,,flowers/images/190.jpg,flowers/images/99.jpg,23,Beri,001,2020-11-20_18h04.26.235,test1,2020.2.5,Win32,60,,,0,22,22,22,1
,,,,m,1.38401,,,,,,flowers/images/257.jpg,flowers/images/369.jpg,24,Beri,001,2020-11-20_18h04.26.235,test1,2020.2.5,Win32,60,,,0,23,23,23,1
,,,,m,2.296695,,,,,,flowers/images/280.jpg,flowers/images/355.jpg,25,Beri,001,2020-11-20_18h04.26.235,test1,2020.2.5,Win32,60,,,0,24,24,24,1
,,,,z,5.872815,,,,,,flowers/images/105.jpg,flowers/images/338.jpg,26,Beri,001,2020-11-20_18h04.26.235,test1,2020.2.5,Win32,60,,,0,25,25,25,1
,,,,m,0.88189,,,,,,flowers/images/202.jpg,flowers/images/3.jpg,27,Beri,001,2020-11-20_18h04.26.235,test1,2020.2.5,Win32,60,,,0,26,26,26,1
,,,,m,0.93106,,,,,,flowers/images/212.jpg,flowers/images/38.jpg,28,Beri,001,2020-11-20_18h04.26.235,test1,2020.2.5,Win32,60,,,0,27,27,27,1
,,,,z,2.08058,,,,,,flowers/images/152.jpg,flowers/images/0.jpg,29,Beri,001,2020-11-20_18h04.26.235,test1,2020.2.5,Win32,60,,,0,28,28,28,1
,,,,z,1.021995,,,,,,flowers/images/170.jpg,flowers/images/296.jpg,30,Beri,001,2020-11-20_18h04.26.235,test1,2020.2.5,Win32,60,,,0,29,29,29,1
,,,,z,1.25892,,,,,,flowers/images/74.jpg,flowers/images/80.jpg,31,Beri,001,2020-11-20_18h04.26.235,test1,2020.2.5,Win32,60,,,0,30,30,30,1
,,,,z,1.38325,,,,,,flowers/images/226.jpg,flowers/images/117.jpg,32,Beri,001,2020-11-20_18h04.26.235,test1,2020.2.5,Win32,60,,,0,31,31,31,1
,,,,m,0.650805,,,,,,flowers/images/1.jpg,flowers/images/19.jpg,33,Beri,001,2020-11-20_18h04.26.235,test1,2020.2.5,Win32,60,,,0,32,32,32,1
,,,,m,1.340425,,,,,,flowers/images/182.jpg,flowers/images/335.jpg,34,Beri,001,2020-11-20_18h04.26.235,test1,2020.2.5,Win32,60,,,0,33,33,33,1
,,,,z,1.52696,,,,,,flowers/images/245.jpg,flowers/images/62.jpg,35,Beri,001,2020-11-20_18h04.26.235,test1,2020.2.5,Win32,60,,,0,34,34,34,1
,,,,m,0.877485,,,,,,flowers/images/167.jpg,flowers/images/49.jpg,36,Beri,001,2020-11-20_18h04.26.235,test1,2020.2.5,Win32,60,,,0,35,35,35,1
,,,,z,0.932975,,,,,,flowers/images/38.jpg,flowers/images/250.jpg,37,Beri,001,2020-11-20_18h04.26.235,test1,2020.2.5,Win32,60,,,0,36,36,36,1
,,,,z,3.226645,,,,,,flowers/images/124.jpg,flowers/images/324.jpg,38,Beri,001,2020-11-20_18h04.26.235,test1,2020.2.5,Win32,60,,,0,37,37,37,1
,,,,m,0.85635,,,,,,flowers/images/92.jpg,flowers/images/13.jpg,39,Beri,001,2020-11-20_18h04.26.235,test1,2020.2.5,Win32,60,,,0,38,38,38,1
,,,,z,0.85172,,,,,,flowers/images/120.jpg,flowers/images/374.jpg,40,Beri,001,2020-11-20_18h04.26.235,test1,2020.2.5,Win32,60,,,0,39,39,39,1
,,,,m,1.555205,,,,,,flowers/images/350.jpg,flowers/images/100.jpg,41,Beri,001,2020-11-20_18h04.26.235,test1,2020.2.5,Win32,60,,,0,40,40,40,1
,,,,z,0.83551,,,,,,flowers/images/68.jpg,flowers/images/236.jpg,42,Beri,001,2020-11-20_18h04.26.235,test1,2020.2.5,Win32,60,,,0,41,41,41,1
,,,,m,1.09771,,,,,,flowers/images/5.jpg,flowers/images/340.jpg,43,Beri,001,2020-11-20_18h04.26.235,test1,2020.2.5,Win32,60,,,0,42,42,42,1
,,,,m,0.892715,,,,,,flowers/images/99.jpg,flowers/images/313.jpg,44,Beri,001,2020-11-20_18h04.26.235,test1,2020.2.5,Win32,60,,,0,43,43,43,1
,,,,m,1.190265,,,,,,flowers/images/229.jpg,flowers/images/177.jpg,45,Beri,001,2020-11-20_18h04.26.235,test1,2020.2.5,Win32,60,,,0,44,44,44,1
,,,,z,0.846895,,,,,,flowers/images/361.jpg,flowers/images/383.jpg,46,Beri,001,2020-11-20_18h04.26.235,test1,2020.2.5,Win32,60,,,0,45,45,45,1
,,,,m,0.653345,,,,,,flowers/images/129.jpg,flowers/images/398.jpg,47,Beri,001,2020-11-20_18h04.26.235,test1,2020.2.5,Win32,60,,,0,46,46,46,1
,,,,z,0.62059,,,,,,flowers/images/228.jpg,flowers/images/159.jpg,48,Beri,001,2020-11-20_18h04.26.235,test1,2020.2.5,Win32,60,,,0,47,47,47,1
,,,,z,0.88332,,,,,,flowers/images/65.jpg,flowers/images/312.jpg,49,Beri,001,2020-11-20_18h04.26.235,test1,2020.2.5,Win32,60,,,0,48,48,48,1
,,,,z,0.710545,,,,,,flowers/images/73.jpg,flowers/images/163.jpg,50,Beri,001,2020-11-20_18h04.26.235,test1,2020.2.5,Win32,60,,,0,49,49,49,1
,,,,m,1.24387,,,,,,flowers/images/224.jpg,flowers/images/278.jpg,51,Beri,001,2020-11-20_18h04.26.235,test1,2020.2.5,Win32,60,,,0,50,50,50,1
,,,,m,0.93852,,,,,,flowers/images/312.jpg,flowers/images/185.jpg,52,Beri,001,2020-11-20_18h04.26.235,test1,2020.2.5,Win32,60,,,0,51,51,51,1
,,,,m,2.02647,,,,,,flowers/images/256.jpg,flowers/images/112.jpg,53,Beri,001,2020-11-20_18h04.26.235,test1,2020.2.5,Win32,60,,,0,52,52,52,1
,,,,m,0.954175,,,,,,flowers/images/26.jpg,flowers/images/261.jpg,54,Beri,001,2020-11-20_18h04.26.235,test1,2020.2.5,Win32,60,,,0,53,53,53,1
,,,,z,1.938195,,,,,,flowers/images/51.jpg,flowers/images/106.jpg,55,Beri,001,2020-11-20_18h04.26.235,test1,2020.2.5,Win32,60,,,0,54,54,54,1
,,,,z,1.99998,,,,,,flowers/images/371.jpg,flowers/images/160.jpg,56,Beri,001,2020-11-20_18h04.26.235,test1,2020.2.5,Win32,60,,,0,55,55,55,1
,,,,z,1.19148,,,,,,flowers/images/59.jpg,flowers/images/257.jpg,57,Beri,001,2020-11-20_18h04.26.235,test1,2020.2.5,Win32,60,,,0,56,56,56,1
,,,,m,0.880795,,,,,,flowers/images/347.jpg,flowers/images/190.jpg,58,Beri,001,2020-11-20_18h04.26.235,test1,2020.2.5,Win32,60,,,0,57,57,57,1
,,,,m,2.70706,,,,,,flowers/images/8.jpg,flowers/images/209.jpg,59,Beri,001,2020-11-20_18h04.26.235,test1,2020.2.5,Win32,60,,,0,58,58,58,1
,,,,m,4.753415,,,,,,flowers/images/278.jpg,flowers/images/31.jpg,60,Beri,001,2020-11-20_18h04.26.235,test1,2020.2.5,Win32,60,,,0,59,59,59,1
,,,,m,1.548135,,,,,,flowers/images/262.jpg,flowers/images/325.jpg,61,Beri,001,2020-11-20_18h04.26.235,test1,2020.2.5,Win32,60,,,0,60,60,60,1
,,,,m,3.75709,,,,,,flowers/images/273.jpg,flowers/images/83.jpg,62,Beri,001,2020-11-20_18h04.26.235,test1,2020.2.5,Win32,60,,,0,61,61,61,1
,,,,z,2.139855,,,,,,flowers/images/52.jpg,flowers/images/17.jpg,63,Beri,001,2020-11-20_18h04.26.235,test1,2020.2.5,Win32,60,,,0,62,62,62,1
,,,,z,0.946575,,,,,,flowers/images/243.jpg,flowers/images/27.jpg,64,Beri,001,2020-11-20_18h04.26.235,test1,2020.2.5,Win32,60,,,0,63,63,63,1
,,,,m,0.925295,,,,,,flowers/images/175.jpg,flowers/images/192.jpg,65,Beri,001,2020-11-20_18h04.26.235,test1,2020.2.5,Win32,60,,,0,64,64,64,1
,,,,m,4.516585,,,,,,flowers/images/53.jpg,flowers/images/199.jpg,66,Beri,001,2020-11-20_18h04.26.235,test1,2020.2.5,Win32,60,,,0,65,65,65,1
,,,,z,1.155025,,,,,,flowers/images/316.jpg,flowers/images/381.jpg,67,Beri,001,2020-11-20_18h04.26.235,test1,2020.2.5,Win32,60,,,0,66,66,66,1
,,,,z,4.45948,,,,,,flowers/images/249.jpg,flowers/images/213.jpg,68,Beri,001,2020-11-20_18h04.26.235,test1,2020.2.5,Win32,60,,,0,67,67,67,1
,,,,m,0.756425,,,,,,flowers/images/70.jpg,flowers/images/60.jpg,69,Beri,001,2020-11-20_18h04.26.235,test1,2020.2.5,Win32,60,,,0,68,68,68,1
,,,,m,0.809445,,,,,,flowers/images/300.jpg,flowers/images/386.jpg,70,Beri,001,2020-11-20_18h04.26.235,test1,2020.2.5,Win32,60,,,0,69,69,69,1
,,,,m,0.968745,,,,,,flowers/images/162.jpg,flowers/images/149.jpg,71,Beri,001,2020-11-20_18h04.26.235,test1,2020.2.5,Win32,60,,,0,70,70,70,1
,,,,m,0.955925,,,,,,flowers/images/146.jpg,flowers/images/336.jpg,72,Beri,001,2020-11-20_18h04.26.235,test1,2020.2.5,Win32,60,,,0,71,71,71,1
,,,,m,1.01149,,,,,,flowers/images/115.jpg,flowers/images/120.jpg,73,Beri,001,2020-11-20_18h04.26.235,test1,2020.2.5,Win32,60,,,0,72,72,72,1
,,,,z,4.73059,,,,,,flowers/images/311.jpg,flowers/images/123.jpg,74,Beri,001,2020-11-20_18h04.26.235,test1,2020.2.5,Win32,60,,,0,73,73,73,1
,,,,z,1.544905,,,,,,flowers/images/33.jpg,flowers/images/146.jpg,75,Beri,001,2020-11-20_18h04.26.235,test1,2020.2.5,Win32,60,,,0,74,74,74,1
,,,,m,0.862335,,,,,,flowers/images/78.jpg,flowers/images/352.jpg,76,Beri,001,2020-11-20_18h04.26.235,test1,2020.2.5,Win32,60,,,0,75,75,75,1
,,,,z,0.896765,,,,,,flowers/images/43.jpg,flowers/images/50.jpg,77,Beri,001,2020-11-20_18h04.26.235,test1,2020.2.5,Win32,60,,,0,76,76,76,1
,,,,z,4.020035,,,,,,flowers/images/373.jpg,flowers/images/78.jpg,78,Beri,001,2020-11-20_18h04.26.235,test1,2020.2.5,Win32,60,,,0,77,77,77,1
,,,,m,3.72772,,,,,,flowers/images/233.jpg,flowers/images/134.jpg,79,Beri,001,2020-11-20_18h04.26.235,test1,2020.2.5,Win32,60,,,0,78,78,78,1
,,,,m,1.96264,,,,,,flowers/images/386.jpg,flowers/images/390.jpg,80,Beri,001,2020-11-20_18h04.26.235,test1,2020.2.5,Win32,60,,,0,79,79,79,1
,,,,m,2.155115,,,,,,flowers/images/205.jpg,flowers/images/388.jpg,81,Beri,001,2020-11-20_18h04.26.235,test1,2020.2.5,Win32,60,,,0,80,80,80,1
,,,,m,0.97735,,,,,,flowers/images/130.jpg,flowers/images/48.jpg,82,Beri,001,2020-11-20_18h04.26.235,test1,2020.2.5,Win32,60,,,0,81,81,81,1
,,,,m,3.0441,,,,,,flowers/images/187.jpg,flowers/images/253.jpg,83,Beri,001,2020-11-20_18h04.26.235,test1,2020.2.5,Win32,60,,,0,82,82,82,1
,,,,z,4.741335,,,,,,flowers/images/232.jpg,flowers/images/141.jpg,84,Beri,001,2020-11-20_18h04.26.235,test1,2020.2.5,Win32,60,,,0,83,83,83,1
,,,,m,1.096975,,,,,,flowers/images/253.jpg,flowers/images/71.jpg,85,Beri,001,2020-11-20_18h04.26.235,test1,2020.2.5,Win32,60,,,0,84,84,84,1
,,,,m,1.1632,,,,,,flowers/images/332.jpg,flowers/images/322.jpg,86,Beri,001,2020-11-20_18h04.26.235,test1,2020.2.5,Win32,60,,,0,85,85,85,1
,,,,z,0.78108,,,,,,flowers/images/103.jpg,flowers/images/182.jpg,87,Beri,001,2020-11-20_18h04.26.235,test1,2020.2.5,Win32,60,,,0,86,86,86,1
,,,,m,4.11586,,,,,,flowers/images/271.jpg,flowers/images/103.jpg,88,Beri,001,2020-11-20_18h04.26.235,test1,2020.2.5,Win32,60,,,0,87,87,87,1
,,,,z,1.16344,,,,,,flowers/images/63.jpg,flowers/images/227.jpg,89,Beri,001,2020-11-20_18h04.26.235,test1,2020.2.5,Win32,60,,,0,88,88,88,1
,,,,z,3.067735,,,,,,flowers/images/382.jpg,flowers/images/359.jpg,90,Beri,001,2020-11-20_18h04.26.235,test1,2020.2.5,Win32,60,,,0,89,89,89,1
,,,,z,1.05224,,,,,,flowers/images/252.jpg,flowers/images/87.jpg,91,Beri,001,2020-11-20_18h04.26.235,test1,2020.2.5,Win32,60,,,0,90,90,90,1
,,,,m,0.804035,,,,,,flowers/images/101.jpg,flowers/images/196.jpg,92,Beri,001,2020-11-20_18h04.26.235,test1,2020.2.5,Win32,60,,,0,91,91,91,1
,,,,z,0.90744,,,,,,flowers/images/104.jpg,flowers/images/270.jpg,93,Beri,001,2020-11-20_18h04.26.235,test1,2020.2.5,Win32,60,,,0,92,92,92,1
,,,,m,2.53473,,,,,,flowers/images/270.jpg,flowers/images/108.jpg,94,Beri,001,2020-11-20_18h04.26.235,test1,2020.2.5,Win32,60,,,0,93,93,93,1
,,,,m,0.793535,,,,,,flowers/images/0.jpg,flowers/images/143.jpg,95,Beri,001,2020-11-20_18h04.26.235,test1,2020.2.5,Win32,60,,,0,94,94,94,1
,,,,z,1.06947,,,,,,flowers/images/348.jpg,flowers/images/276.jpg,96,Beri,001,2020-11-20_18h04.26.235,test1,2020.2.5,Win32,60,,,0,95,95,95,1
,,,,m,0.827685,,,,,,flowers/images/251.jpg,flowers/images/55.jpg,97,Beri,001,2020-11-20_18h04.26.235,test1,2020.2.5,Win32,60,,,0,96,96,96,1
,,,,m,0.807615,,,,,,flowers/images/119.jpg,flowers/images/43.jpg,98,Beri,001,2020-11-20_18h04.26.235,test1,2020.2.5,Win32,60,,,0,97,97,97,1
,,,,z,1.238345,,,,,,flowers/images/158.jpg,flowers/images/46.jpg,99,Beri,001,2020-11-20_18h04.26.235,test1,2020.2.5,Win32,60,,,0,98,98,98,1
,,,,m,0.703265,,,,,,flowers/images/297.jpg,flowers/images/205.jpg,100,Beri,001,2020-11-20_18h04.26.235,test1,2020.2.5,Win32,60,,,0,99,99,99,1
,,,,m,0.82653,,,,,,flowers/images/25.jpg,flowers/images/54.jpg,101,Beri,001,2020-11-20_18h04.26.235,test1,2020.2.5,Win32,60,,,0,100,100,100,1
,,,,z,1.25855,,,,,,flowers/images/67.jpg,flowers/images/331.jpg,102,Beri,001,2020-11-20_18h04.26.235,test1,2020.2.5,Win32,60,,,0,101,101,101,1
,,,,m,0.72331,,,,,,flowers/images/366.jpg,flowers/images/372.jpg,103,Beri,001,2020-11-20_18h04.26.235,test1,2020.2.5,Win32,60,,,0,102,102,102,1
,,,,z,0.816055,,,,,,flowers/images/4.jpg,flowers/images/220.jpg,104,Beri,001,2020-11-20_18h04.26.235,test1,2020.2.5,Win32,60,,,0,103,103,103,1
,,,,z,0.819775,,,,,,flowers/images/90.jpg,flowers/images/148.jpg,105,Beri,001,2020-11-20_18h04.26.235,test1,2020.2.5,Win32,60,,,0,104,104,104,1
,,,,z,0.925825,,,,,,flowers/images/198.jpg,flowers/images/380.jpg,106,Beri,001,2020-11-20_18h04.26.235,test1,2020.2.5,Win32,60,,,0,105,105,105,1
,,,,m,0.96991,,,,,,flowers/images/375.jpg,flowers/images/362.jpg,107,Beri,001,2020-11-20_18h04.26.235,test1,2020.2.5,Win32,60,,,0,106,106,106,1
,,,,z,0.77291,,,,,,flowers/images/372.jpg,flowers/images/98.jpg,108,Beri,001,2020-11-20_18h04.26.235,test1,2020.2.5,Win32,60,,,0,107,107,107,1
,,,,z,1.48564,,,,,,flowers/images/364.jpg,flowers/images/12.jpg,109,Beri,001,2020-11-20_18h04.26.235,test1,2020.2.5,Win32,60,,,0,108,108,108,1
,,,,m,1.817395,,,,,,flowers/images/176.jpg,flowers/images/316.jpg,110,Beri,001,2020-11-20_18h04.26.235,test1,2020.2.5,Win32,60,,,0,109,109,109,1
,,,,m,1.042795,,,,,,flowers/images/48.jpg,flowers/images/75.jpg,111,Beri,001,2020-11-20_18h04.26.235,test1,2020.2.5,Win32,60,,,0,110,110,110,1
,,,,m,2.4595,,,,,,flowers/images/188.jpg,flowers/images/8.jpg,112,Beri,001,2020-11-20_18h04.26.235,test1,2020.2.5,Win32,60,,,0,111,111,111,1
,,,,z,0.746825,,,,,,flowers/images/288.jpg,flowers/images/251.jpg,113,Beri,001,2020-11-20_18h04.26.235,test1,2020.2.5,Win32,60,,,0,112,112,112,1
,,,,m,0.85616,,,,,,flowers/images/349.jpg,flowers/images/282.jpg,114,Beri,001,2020-11-20_18h04.26.235,test1,2020.2.5,Win32,60,,,0,113,113,113,1
,,,,z,2.470615,,,,,,flowers/images/135.jpg,flowers/images/172.jpg,115,Beri,001,2020-11-20_18h04.26.235,test1,2020.2.5,Win32,60,,,0,114,114,114,1
,,,,z,1.05404,,,,,,flowers/images/283.jpg,flowers/images/139.jpg,116,Beri,001,2020-11-20_18h04.26.235,test1,2020.2.5,Win32,60,,,0,115,115,115,1
,,,,m,4.27878,,,,,,flowers/images/301.jpg,flowers/images/102.jpg,117,Beri,001,2020-11-20_18h04.26.235,test1,2020.2.5,Win32,60,,,0,116,116,116,1
,,,,m,1.852125,,,,,,flowers/images/164.jpg,flowers/images/392.jpg,118,Beri,001,2020-11-20_18h04.26.235,test1,2020.2.5,Win32,60,,,0,117,117,117,1
,,,,m,0.71768,,,,,,flowers/images/385.jpg,flowers/images/244.jpg,119,Beri,001,2020-11-20_18h04.26.235,test1,2020.2.5,Win32,60,,,0,118,118,118,1
,,,,m,0.912295,,,,,,flowers/images/137.jpg,flowers/images/104.jpg,120,Beri,001,2020-11-20_18h04.26.235,test1,2020.2.5,Win32,60,,,0,119,119,119,1
,,,,m,1.56518,,,,,,flowers/images/23.jpg,flowers/images/157.jpg,121,Beri,001,2020-11-20_18h04.26.235,test1,2020.2.5,Win32,60,,,0,120,120,120,1
,,,,z,2.630405,,,,,,flowers/images/310.jpg,flowers/images/238.jpg,122,Beri,001,2020-11-20_18h04.26.235,test1,2020.2.5,Win32,60,,,0,121,121,121,1
,,,,z,1.06571,,,,,,flowers/images/215.jpg,flowers/images/222.jpg,123,Beri,001,2020-11-20_18h04.26.235,test1,2020.2.5,Win32,60,,,0,122,122,122,1
,,,,z,3.24576,,,,,,flowers/images/244.jpg,flowers/images/274.jpg,124,Beri,001,2020-11-20_18h04.26.235,test1,2020.2.5,Win32,60,,,0,123,123,123,1
,,,,z,2.957435,,,,,,flowers/images/313.jpg,flowers/images/329.jpg,125,Beri,001,2020-11-20_18h04.26.235,test1,2020.2.5,Win32,60,,,0,124,124,124,1
,,,,m,0.91196,,,,,,flowers/images/207.jpg,flowers/images/188.jpg,126,Beri,001,2020-11-20_18h04.26.235,test1,2020.2.5,Win32,60,,,0,125,125,125,1
,,,,m,0.82125,,,,,,flowers/images/265.jpg,flowers/images/351.jpg,127,Beri,001,2020-11-20_18h04.26.235,test1,2020.2.5,Win32,60,,,0,126,126,126,1
,,,,m,1.1009,,,,,,flowers/images/248.jpg,flowers/images/239.jpg,128,Beri,001,2020-11-20_18h04.26.235,test1,2020.2.5,Win32,60,,,0,127,127,127,1
,,,,z,1.319615,,,,,,flowers/images/204.jpg,flowers/images/225.jpg,129,Beri,001,2020-11-20_18h04.26.235,test1,2020.2.5,Win32,60,,,0,128,128,128,1
,,,,z,3.551245,,,,,,flowers/images/13.jpg,flowers/images/119.jpg,130,Beri,001,2020-11-20_18h04.26.235,test1,2020.2.5,Win32,60,,,0,129,129,129,1
,,,,m,0.788125,,,,,,flowers/images/370.jpg,flowers/images/39.jpg,131,Beri,001,2020-11-20_18h04.26.235,test1,2020.2.5,Win32,60,,,0,130,130,130,1
,,,,m,0.737945,,,,,,flowers/images/397.jpg,flowers/images/69.jpg,132,Beri,001,2020-11-20_18h04.26.235,test1,2020.2.5,Win32,60,,,0,131,131,131,1
,,,,m,4.32158,,,,,,flowers/images/393.jpg,flowers/images/399.jpg,133,Beri,001,2020-11-20_18h04.26.235,test1,2020.2.5,Win32,60,,,0,132,132,132,1
,,,,m,1.040695,,,,,,flowers/images/363.jpg,flowers/images/74.jpg,134,Beri,001,2020-11-20_18h04.26.235,test1,2020.2.5,Win32,60,,,0,133,133,133,1
,,,,z,1.101335,,,,,,flowers/images/254.jpg,flowers/images/174.jpg,135,Beri,001,2020-11-20_18h04.26.235,test1,2020.2.5,Win32,60,,,0,134,134,134,1
,,,,m,0.64637,,,,,,flowers/images/139.jpg,flowers/images/70.jpg,136,Beri,001,2020-11-20_18h04.26.235,test1,2020.2.5,Win32,60,,,0,135,135,135,1
,,,,m,0.5813,,,,,,flowers/images/95.jpg,flowers/images/315.jpg,137,Beri,001,2020-11-20_18h04.26.235,test1,2020.2.5,Win32,60,,,0,136,136,136,1
,,,,m,0.58232,,,,,,flowers/images/294.jpg,flowers/images/334.jpg,138,Beri,001,2020-11-20_18h04.26.235,test1,2020.2.5,Win32,60,,,0,137,137,137,1
,,,,m,0.83625,,,,,,flowers/images/174.jpg,flowers/images/171.jpg,139,Beri,001,2020-11-20_18h04.26.235,test1,2020.2.5,Win32,60,,,0,138,138,138,1
,,,,m,0.850225,,,,,,flowers/images/57.jpg,flowers/images/326.jpg,140,Beri,001,2020-11-20_18h04.26.235,test1,2020.2.5,Win32,60,,,0,139,139,139,1
,,,,m,0.806165,,,,,,flowers/images/246.jpg,flowers/images/82.jpg,141,Beri,001,2020-11-20_18h04.26.235,test1,2020.2.5,Win32,60,,,0,140,140,140,1
,,,,m,0.970105,,,,,,flowers/images/16.jpg,flowers/images/45.jpg,142,Beri,001,2020-11-20_18h04.26.235,test1,2020.2.5,Win32,60,,,0,141,141,141,1
,,,,z,0.844825,,,,,,flowers/images/380.jpg,flowers/images/150.jpg,143,Beri,001,2020-11-20_18h04.26.235,test1,2020.2.5,Win32,60,,,0,142,142,142,1
,,,,m,0.691915,,,,,,flowers/images/109.jpg,flowers/images/350.jpg,144,Beri,001,2020-11-20_18h04.26.235,test1,2020.2.5,Win32,60,,,0,143,143,143,1
,,,,m,0.791305,,,,,,flowers/images/223.jpg,flowers/images/366.jpg,145,Beri,001,2020-11-20_18h04.26.235,test1,2020.2.5,Win32,60,,,0,144,144,144,1
,,,,z,0.766425,,,,,,flowers/images/60.jpg,flowers/images/194.jpg,146,Beri,001,2020-11-20_18h04.26.235,test1,2020.2.5,Win32,60,,,0,145,145,145,1
,,,,z,0.53743,,,,,,flowers/images/268.jpg,flowers/images/332.jpg,147,Beri,001,2020-11-20_18h04.26.235,test1,2020.2.5,Win32,60,,,0,146,146,146,1
,,,,z,0.686415,,,,,,flowers/images/388.jpg,flowers/images/319.jpg,148,Beri,001,2020-11-20_18h04.26.235,test1,2020.2.5,Win32,60,,,0,147,147,147,1
,,,,m,0.65218,,,,,,flowers/images/356.jpg,flowers/images/337.jpg,149,Beri,001,2020-11-20_18h04.26.235,test1,2020.2.5,Win32,60,,,0,148,148,148,1
,,,,m,0.942955,,,,,,flowers/images/384.jpg,flowers/images/344.jpg,150,Beri,001,2020-11-20_18h04.26.235,test1,2020.2.5,Win32,60,,,0,149,149,149,1
,,,,m,0.88388,,,,,,flowers/images/333.jpg,flowers/images/346.jpg,151,Beri,001,2020-11-20_18h04.26.235,test1,2020.2.5,Win32,60,,,0,150,150,150,1
,,,,m,1.024865,,,,,,flowers/images/24.jpg,flowers/images/116.jpg,152,Beri,001,2020-11-20_18h04.26.235,test1,2020.2.5,Win32,60,,,0,151,151,151,1
,,,,m,0.689515,,,,,,flowers/images/220.jpg,flowers/images/235.jpg,153,Beri,001,2020-11-20_18h04.26.235,test1,2020.2.5,Win32,60,,,0,152,152,152,1
,,,,m,0.76422,,,,,,flowers/images/269.jpg,flowers/images/198.jpg,154,Beri,001,2020-11-20_18h04.26.235,test1,2020.2.5,Win32,60,,,0,153,153,153,1
,,,,z,1.344615,,,,,,flowers/images/107.jpg,flowers/images/1.jpg,155,Beri,001,2020-11-20_18h04.26.235,test1,2020.2.5,Win32,60,,,0,154,154,154,1
,,,,z,5.74662,,,,,,flowers/images/314.jpg,flowers/images/147.jpg,156,Beri,001,2020-11-20_18h04.26.235,test1,2020.2.5,Win32,60,,,0,155,155,155,1
,,,,m,0.618565,,,,,,flowers/images/117.jpg,flowers/images/258.jpg,157,Beri,001,2020-11-20_18h04.26.235,test1,2020.2.5,Win32,60,,,0,156,156,156,1
,,,,z,0.791505,,,,,,flowers/images/41.jpg,flowers/images/214.jpg,158,Beri,001,2020-11-20_18h04.26.235,test1,2020.2.5,Win32,60,,,0,157,157,157,1
,,,,z,1.324085,,,,,,flowers/images/306.jpg,flowers/images/118.jpg,159,Beri,001,2020-11-20_18h04.26.235,test1,2020.2.5,Win32,60,,,0,158,158,158,1
,,,,m,0.661755,,,,,,flowers/images/299.jpg,flowers/images/40.jpg,160,Beri,001,2020-11-20_18h04.26.235,test1,2020.2.5,Win32,60,,,0,159,159,159,1
,,,,m,1.386125,,,,,,flowers/images/50.jpg,flowers/images/291.jpg,161,Beri,001,2020-11-20_18h04.26.235,test1,2020.2.5,Win32,60,,,0,160,160,160,1
,,,,m,1.36955,,,,,,flowers/images/238.jpg,flowers/images/129.jpg,162,Beri,001,2020-11-20_18h04.26.235,test1,2020.2.5,Win32,60,,,0,161,161,161,1
,,,,m,1.414025,,,,,,flowers/images/30.jpg,flowers/images/136.jpg,163,Beri,001,2020-11-20_18h04.26.235,test1,2020.2.5,Win32,60,,,0,162,162,162,1
,,,,m,0.819025,,,,,,flowers/images/211.jpg,flowers/images/306.jpg,164,Beri,001,2020-11-20_18h04.26.235,test1,2020.2.5,Win32,60,,,0,163,163,163,1
,,,,z,1.268145,,,,,,flowers/images/227.jpg,flowers/images/57.jpg,165,Beri,001,2020-11-20_18h04.26.235,test1,2020.2.5,Win32,60,,,0,164,164,164,1
,,,,m,0.75286,,,,,,flowers/images/242.jpg,flowers/images/61.jpg,166,Beri,001,2020-11-20_18h04.26.235,test1,2020.2.5,Win32,60,,,0,165,165,165,1
,,,,m,5.98861,,,,,,flowers/images/387.jpg,flowers/images/263.jpg,167,Beri,001,2020-11-20_18h04.26.235,test1,2020.2.5,Win32,60,,,0,166,166,166,1
,,,,z,1.16699,,,,,,flowers/images/193.jpg,flowers/images/367.jpg,168,Beri,001,2020-11-20_18h04.26.235,test1,2020.2.5,Win32,60,,,0,167,167,167,1
,,,,m,0.946605,,,,,,flowers/images/231.jpg,flowers/images/18.jpg,169,Beri,001,2020-11-20_18h04.26.235,test1,2020.2.5,Win32,60,,,0,168,168,168,1
,,,,m,1.90277,,,,,,flowers/images/154.jpg,flowers/images/32.jpg,170,Beri,001,2020-11-20_18h04.26.235,test1,2020.2.5,Win32,60,,,0,169,169,169,1
,,,,m,1.006265,,,,,,flowers/images/79.jpg,flowers/images/301.jpg,171,Beri,001,2020-11-20_18h04.26.235,test1,2020.2.5,Win32,60,,,0,170,170,170,1
,,,,z,0.861045,,,,,,flowers/images/263.jpg,flowers/images/210.jpg,172,Beri,001,2020-11-20_18h04.26.235,test1,2020.2.5,Win32,60,,,0,171,171,171,1
,,,,z,5.81443,,,,,,flowers/images/383.jpg,flowers/images/354.jpg,173,Beri,001,2020-11-20_18h04.26.235,test1,2020.2.5,Win32,60,,,0,172,172,172,1
,,,,z,1.089425,,,,,,flowers/images/290.jpg,flowers/images/212.jpg,174,Beri,001,2020-11-20_18h04.26.235,test1,2020.2.5,Win32,60,,,0,173,173,173,1
,,,,m,1.105605,,,,,,flowers/images/206.jpg,flowers/images/397.jpg,175,Beri,001,2020-11-20_18h04.26.235,test1,2020.2.5,Win32,60,,,0,174,174,174,1
,,,,m,2.302965,,,,,,flowers/images/317.jpg,flowers/images/297.jpg,176,Beri,001,2020-11-20_18h04.26.235,test1,2020.2.5,Win32,60,,,0,175,175,175,1
,,,,m,0.973405,,,,,,flowers/images/329.jpg,flowers/images/255.jpg,177,Beri,001,2020-11-20_18h04.26.235,test1,2020.2.5,Win32,60,,,0,176,176,176,1
,,,,m,0.68792,,,,,,flowers/images/225.jpg,flowers/images/91.jpg,178,Beri,001,2020-11-20_18h04.26.235,test1,2020.2.5,Win32,60,,,0,177,177,177,1
,,,,z,1.23603,,,,,,flowers/images/11.jpg,flowers/images/256.jpg,179,Beri,001,2020-11-20_18h04.26.235,test1,2020.2.5,Win32,60,,,0,178,178,178,1
,,,,m,0.718015,,,,,,flowers/images/234.jpg,flowers/images/64.jpg,180,Beri,001,2020-11-20_18h04.26.235,test1,2020.2.5,Win32,60,,,0,179,179,179,1
,,,,m,1.10054,,,,,,flowers/images/342.jpg,flowers/images/26.jpg,181,Beri,001,2020-11-20_18h04.26.235,test1,2020.2.5,Win32,60,,,0,180,180,180,1
,,,,m,1.397515,,,,,,flowers/images/391.jpg,flowers/images/286.jpg,182,Beri,001,2020-11-20_18h04.26.235,test1,2020.2.5,Win32,60,,,0,181,181,181,1
,,,,m,0.664755,,,,,,flowers/images/221.jpg,flowers/images/268.jpg,183,Beri,001,2020-11-20_18h04.26.235,test1,2020.2.5,Win32,60,,,0,182,182,182,1
,,,,z,1.957325,,,,,,flowers/images/210.jpg,flowers/images/84.jpg,184,Beri,001,2020-11-20_18h04.26.235,test1,2020.2.5,Win32,60,,,0,183,183,183,1
,,,,m,0.68844,,,,,,flowers/images/138.jpg,flowers/images/77.jpg,185,Beri,001,2020-11-20_18h04.26.235,test1,2020.2.5,Win32,60,,,0,184,184,184,1
,,,,z,1.5066,,,,,,flowers/images/315.jpg,flowers/images/269.jpg,186,Beri,001,2020-11-20_18h04.26.235,test1,2020.2.5,Win32,60,,,0,185,185,185,1
,,,,z,0.81128,,,,,,flowers/images/308.jpg,flowers/images/265.jpg,187,Beri,001,2020-11-20_18h04.26.235,test1,2020.2.5,Win32,60,,,0,186,186,186,1
,,,,m,0.761685,,,,,,flowers/images/88.jpg,flowers/images/56.jpg,188,Beri,001,2020-11-20_18h04.26.235,test1,2020.2.5,Win32,60,,,0,187,187,187,1
,,,,m,1.614515,,,,,,flowers/images/102.jpg,flowers/images/126.jpg,189,Beri,001,2020-11-20_18h04.26.235,test1,2020.2.5,Win32,60,,,0,188,188,188,1
,,,,z,0.69606,,,,,,flowers/images/132.jpg,flowers/images/389.jpg,190,Beri,001,2020-11-20_18h04.26.235,test1,2020.2.5,Win32,60,,,0,189,189,189,1
,,,,z,0.970655,,,,,,flowers/images/186.jpg,flowers/images/144.jpg,191,Beri,001,2020-11-20_18h04.26.235,test1,2020.2.5,Win32,60,,,0,190,190,190,1
,,,,z,0.948745,,,,,,flowers/images/284.jpg,flowers/images/92.jpg,192,Beri,001,2020-11-20_18h04.26.235,test1,2020.2.5,Win32,60,,,0,191,191,191,1
,,,,z,1.21729,,,,,,flowers/images/396.jpg,flowers/images/24.jpg,193,Beri,001,2020-11-20_18h04.26.235,test1,2020.2.5,Win32,60,,,0,192,192,192,1
,,,,m,0.89916,,,,,,flowers/images/374.jpg,flowers/images/287.jpg,194,Beri,001,2020-11-20_18h04.26.235,test1,2020.2.5,Win32,60,,,0,193,193,193,1
,,,,m,0.683725,,,,,,flowers/images/140.jpg,flowers/images/267.jpg,195,Beri,001,2020-11-20_18h04.26.235,test1,2020.2.5,Win32,60,,,0,194,194,194,1
,,,,z,0.598245,,,,,,flowers/images/267.jpg,flowers/images/343.jpg,196,Beri,001,2020-11-20_18h04.26.235,test1,2020.2.5,Win32,60,,,0,195,195,195,1
,,,,m,0.566705,,,,,,flowers/images/286.jpg,flowers/images/35.jpg,197,Beri,001,2020-11-20_18h04.26.235,test1,2020.2.5,Win32,60,,,0,196,196,196,1
,,,,z,0.60475,,,,,,flowers/images/143.jpg,flowers/images/391.jpg,198,Beri,001,2020-11-20_18h04.26.235,test1,2020.2.5,Win32,60,,,0,197,197,197,1
,,,,z,0.74723,,,,,,flowers/images/196.jpg,flowers/images/155.jpg,199,Beri,001,2020-11-20_18h04.26.235,test1,2020.2.5,Win32,60,,,0,198,198,198,1
,,,,m,0.89292,,,,,,flowers/images/281.jpg,flowers/images/394.jpg,200,Beri,001,2020-11-20_18h04.26.235,test1,2020.2.5,Win32,60,,,0,199,199,199,1
