key_resp.keys,key_resp.rt,key_resp_3.keys,key_resp_3.rt,key_resp_2.keys,key_resp_2.rt,trials.thisRepN,trials.thisTrialN,trials.thisN,trials.thisIndex,trials.ran,image_left,image_right,trial_num,participant,session,date,expName,psychopyVersion,OS,frameRate,key_resp_4.keys,key_resp_4.rt,trials_2.thisRepN,trials_2.thisTrialN,trials_2.thisN,trials_2.thisIndex,trials_2.ran
space,8.31141,space,16.167465,m,8.47471,0,0,0,0,1,flowers/images/125.jpg,flowers/images/165.jpg,1,Chace Paulson,001,2020-11-21_15h35.57.473,test1,2020.2.5,MacIntel,60,,,,,,,
,,,,z,4.279045,0,1,1,1,1,flowers/images/168.jpg,flowers/images/195.jpg,2,Chace Paulson,001,2020-11-21_15h35.57.473,test1,2020.2.5,MacIntel,60,,,,,,,
,,,,z,2.703695,0,2,2,2,1,flowers/images/114.jpg,flowers/images/131.jpg,3,Chace Paulson,001,2020-11-21_15h35.57.473,test1,2020.2.5,MacIntel,60,,,,,,,
,,,,z,1.22223,0,3,3,3,1,flowers/images/110.jpg,flowers/images/241.jpg,4,Chace Paulson,001,2020-11-21_15h35.57.473,test1,2020.2.5,MacIntel,60,,,,,,,
,,,,m,1.401885,0,4,4,4,1,flowers/images/157.jpg,flowers/images/170.jpg,5,Chace Paulson,001,2020-11-21_15h35.57.473,test1,2020.2.5,MacIntel,60,,,,,,,
,,,,z,1.452945,0,5,5,5,1,flowers/images/291.jpg,flowers/images/302.jpg,6,Chace Paulson,001,2020-11-21_15h35.57.473,test1,2020.2.5,MacIntel,60,,,,,,,
,,,,z,1.47547,0,6,6,6,1,flowers/images/335.jpg,flowers/images/272.jpg,7,Chace Paulson,001,2020-11-21_15h35.57.473,test1,2020.2.5,MacIntel,60,,,,,,,
,,,,m,1.493365,0,7,7,7,1,flowers/images/122.jpg,flowers/images/72.jpg,8,Chace Paulson,001,2020-11-21_15h35.57.473,test1,2020.2.5,MacIntel,60,,,,,,,
,,,,m,2.68212,0,8,8,8,1,flowers/images/240.jpg,flowers/images/67.jpg,9,Chace Paulson,001,2020-11-21_15h35.57.473,test1,2020.2.5,MacIntel,60,,,,,,,
,,,,z,1.939875,0,9,9,9,1,flowers/images/324.jpg,flowers/images/180.jpg,10,Chace Paulson,001,2020-11-21_15h35.57.473,test1,2020.2.5,MacIntel,60,,,,,,,
,,,,z,1.74756,0,10,10,10,1,flowers/images/148.jpg,flowers/images/275.jpg,11,Chace Paulson,001,2020-11-21_15h35.57.473,test1,2020.2.5,MacIntel,60,,,,,,,
,,,,z,1.436225,0,11,11,11,1,flowers/images/61.jpg,flowers/images/2.jpg,12,Chace Paulson,001,2020-11-21_15h35.57.473,test1,2020.2.5,MacIntel,60,,,,,,,
,,,,z,1.31873,0,12,12,12,1,flowers/images/20.jpg,flowers/images/378.jpg,13,Chace Paulson,001,2020-11-21_15h35.57.473,test1,2020.2.5,MacIntel,60,,,,,,,
,,,,z,1.3366,0,13,13,13,1,flowers/images/181.jpg,flowers/images/363.jpg,14,Chace Paulson,001,2020-11-21_15h35.57.473,test1,2020.2.5,MacIntel,60,,,,,,,
,,,,z,2.36874,0,14,14,14,1,flowers/images/87.jpg,flowers/images/187.jpg,15,Chace Paulson,001,2020-11-21_15h35.57.473,test1,2020.2.5,MacIntel,60,,,,,,,
,,,,m,1.70649,0,15,15,15,1,flowers/images/150.jpg,flowers/images/281.jpg,16,Chace Paulson,001,2020-11-21_15h35.57.473,test1,2020.2.5,MacIntel,60,,,,,,,
,,,,z,1.702195,0,16,16,16,1,flowers/images/112.jpg,flowers/images/176.jpg,17,Chace Paulson,001,2020-11-21_15h35.57.473,test1,2020.2.5,MacIntel,60,,,,,,,
,,,,m,1.516025,0,17,17,17,1,flowers/images/236.jpg,flowers/images/243.jpg,18,Chace Paulson,001,2020-11-21_15h35.57.473,test1,2020.2.5,MacIntel,60,,,,,,,
,,,,z,1.307085,0,18,18,18,1,flowers/images/133.jpg,flowers/images/247.jpg,19,Chace Paulson,001,2020-11-21_15h35.57.473,test1,2020.2.5,MacIntel,60,,,,,,,
,,,,m,1.80184,0,19,19,19,1,flowers/images/136.jpg,flowers/images/164.jpg,20,Chace Paulson,001,2020-11-21_15h35.57.473,test1,2020.2.5,MacIntel,60,,,,,,,
,,,,z,1.47379,0,20,20,20,1,flowers/images/185.jpg,flowers/images/211.jpg,21,Chace Paulson,001,2020-11-21_15h35.57.473,test1,2020.2.5,MacIntel,60,,,,,,,
,,,,m,1.732595,0,21,21,21,1,flowers/images/118.jpg,flowers/images/371.jpg,22,Chace Paulson,001,2020-11-21_15h35.57.473,test1,2020.2.5,MacIntel,60,,,,,,,
,,,,z,4.01611,0,22,22,22,1,flowers/images/177.jpg,flowers/images/5.jpg,23,Chace Paulson,001,2020-11-21_15h35.57.473,test1,2020.2.5,MacIntel,60,,,,,,,
,,,,z,2.104975,0,23,23,23,1,flowers/images/91.jpg,flowers/images/215.jpg,24,Chace Paulson,001,2020-11-21_15h35.57.473,test1,2020.2.5,MacIntel,60,,,,,,,
,,,,z,2.09994,0,24,24,24,1,flowers/images/277.jpg,flowers/images/11.jpg,25,Chace Paulson,001,2020-11-21_15h35.57.473,test1,2020.2.5,MacIntel,60,,,,,,,
,,,,z,1.603925,0,25,25,25,1,flowers/images/197.jpg,flowers/images/25.jpg,26,Chace Paulson,001,2020-11-21_15h35.57.473,test1,2020.2.5,MacIntel,60,,,,,,,
,,,,z,1.268125,0,26,26,26,1,flowers/images/131.jpg,flowers/images/63.jpg,27,Chace Paulson,001,2020-11-21_15h35.57.473,test1,2020.2.5,MacIntel,60,,,,,,,
,,,,m,1.490335,0,27,27,27,1,flowers/images/106.jpg,flowers/images/221.jpg,28,Chace Paulson,001,2020-11-21_15h35.57.473,test1,2020.2.5,MacIntel,60,,,,,,,
,,,,m,1.412055,0,28,28,28,1,flowers/images/295.jpg,flowers/images/307.jpg,29,Chace Paulson,001,2020-11-21_15h35.57.473,test1,2020.2.5,MacIntel,60,,,,,,,
,,,,z,2.89355,0,29,29,29,1,flowers/images/368.jpg,flowers/images/384.jpg,30,Chace Paulson,001,2020-11-21_15h35.57.473,test1,2020.2.5,MacIntel,60,,,,,,,
,,,,z,1.06844,0,30,30,30,1,flowers/images/96.jpg,flowers/images/140.jpg,31,Chace Paulson,001,2020-11-21_15h35.57.473,test1,2020.2.5,MacIntel,60,,,,,,,
,,,,m,1.034165,0,31,31,31,1,flowers/images/272.jpg,flowers/images/59.jpg,32,Chace Paulson,001,2020-11-21_15h35.57.473,test1,2020.2.5,MacIntel,60,,,,,,,
,,,,m,2.082375,0,32,32,32,1,flowers/images/389.jpg,flowers/images/110.jpg,33,Chace Paulson,001,2020-11-21_15h35.57.473,test1,2020.2.5,MacIntel,60,,,,,,,
,,,,m,1.67698,0,33,33,33,1,flowers/images/237.jpg,flowers/images/387.jpg,34,Chace Paulson,001,2020-11-21_15h35.57.473,test1,2020.2.5,MacIntel,60,,,,,,,
,,,,z,2.69824,0,34,34,34,1,flowers/images/35.jpg,flowers/images/142.jpg,35,Chace Paulson,001,2020-11-21_15h35.57.473,test1,2020.2.5,MacIntel,60,,,,,,,
,,,,m,1.038895,0,35,35,35,1,flowers/images/49.jpg,flowers/images/200.jpg,36,Chace Paulson,001,2020-11-21_15h35.57.473,test1,2020.2.5,MacIntel,60,,,,,,,
,,,,z,0.81944,0,36,36,36,1,flowers/images/142.jpg,flowers/images/328.jpg,37,Chace Paulson,001,2020-11-21_15h35.57.473,test1,2020.2.5,MacIntel,60,,,,,,,
,,,,m,1.53501,0,37,37,37,1,flowers/images/339.jpg,flowers/images/264.jpg,38,Chace Paulson,001,2020-11-21_15h35.57.473,test1,2020.2.5,MacIntel,60,,,,,,,
,,,,m,1.60234,0,38,38,38,1,flowers/images/394.jpg,flowers/images/266.jpg,39,Chace Paulson,001,2020-11-21_15h35.57.473,test1,2020.2.5,MacIntel,60,,,,,,,
,,,,m,1.46673,0,39,39,39,1,flowers/images/89.jpg,flowers/images/298.jpg,40,Chace Paulson,001,2020-11-21_15h35.57.473,test1,2020.2.5,MacIntel,60,,,,,,,
,,,,m,1.39231,0,40,40,40,1,flowers/images/325.jpg,flowers/images/47.jpg,41,Chace Paulson,001,2020-11-21_15h35.57.473,test1,2020.2.5,MacIntel,60,,,,,,,
,,,,m,1.241445,0,41,41,41,1,flowers/images/40.jpg,flowers/images/162.jpg,42,Chace Paulson,001,2020-11-21_15h35.57.473,test1,2020.2.5,MacIntel,60,,,,,,,
,,,,m,1.368715,0,42,42,42,1,flowers/images/266.jpg,flowers/images/181.jpg,43,Chace Paulson,001,2020-11-21_15h35.57.473,test1,2020.2.5,MacIntel,60,,,,,,,
,,,,m,1.34739,0,43,43,43,1,flowers/images/100.jpg,flowers/images/396.jpg,44,Chace Paulson,001,2020-11-21_15h35.57.473,test1,2020.2.5,MacIntel,60,,,,,,,
,,,,z,1.03667,0,44,44,44,1,flowers/images/144.jpg,flowers/images/231.jpg,45,Chace Paulson,001,2020-11-21_15h35.57.473,test1,2020.2.5,MacIntel,60,,,,,,,
,,,,z,1.636125,0,45,45,45,1,flowers/images/289.jpg,flowers/images/202.jpg,46,Chace Paulson,001,2020-11-21_15h35.57.473,test1,2020.2.5,MacIntel,60,,,,,,,
,,,,m,2.649195,0,46,46,46,1,flowers/images/178.jpg,flowers/images/86.jpg,47,Chace Paulson,001,2020-11-21_15h35.57.473,test1,2020.2.5,MacIntel,60,,,,,,,
,,,,m,1.90813,0,47,47,47,1,flowers/images/360.jpg,flowers/images/393.jpg,48,Chace Paulson,001,2020-11-21_15h35.57.473,test1,2020.2.5,MacIntel,60,,,,,,,
,,,,m,0.979095,0,48,48,48,1,flowers/images/108.jpg,flowers/images/288.jpg,49,Chace Paulson,001,2020-11-21_15h35.57.473,test1,2020.2.5,MacIntel,60,,,,,,,
,,,,m,1.049925,0,49,49,49,1,flowers/images/165.jpg,flowers/images/154.jpg,50,Chace Paulson,001,2020-11-21_15h35.57.473,test1,2020.2.5,MacIntel,60,,,,,,,
,,,,z,2.31603,0,50,50,50,1,flowers/images/27.jpg,flowers/images/121.jpg,51,Chace Paulson,001,2020-11-21_15h35.57.473,test1,2020.2.5,MacIntel,60,,,,,,,
,,,,m,1.44349,0,51,51,51,1,flowers/images/302.jpg,flowers/images/203.jpg,52,Chace Paulson,001,2020-11-21_15h35.57.473,test1,2020.2.5,MacIntel,60,,,,,,,
,,,,z,1.815505,0,52,52,52,1,flowers/images/255.jpg,flowers/images/42.jpg,53,Chace Paulson,001,2020-11-21_15h35.57.473,test1,2020.2.5,MacIntel,60,,,,,,,
,,,,z,1.280995,0,53,53,53,1,flowers/images/31.jpg,flowers/images/289.jpg,54,Chace Paulson,001,2020-11-21_15h35.57.473,test1,2020.2.5,MacIntel,60,,,,,,,
,,,,m,1.195445,0,54,54,54,1,flowers/images/66.jpg,flowers/images/246.jpg,55,Chace Paulson,001,2020-11-21_15h35.57.473,test1,2020.2.5,MacIntel,60,,,,,,,
,,,,z,1.268255,0,55,55,55,1,flowers/images/355.jpg,flowers/images/115.jpg,56,Chace Paulson,001,2020-11-21_15h35.57.473,test1,2020.2.5,MacIntel,60,,,,,,,
,,,,z,1.08605,0,56,56,56,1,flowers/images/241.jpg,flowers/images/345.jpg,57,Chace Paulson,001,2020-11-21_15h35.57.473,test1,2020.2.5,MacIntel,60,,,,,,,
,,,,m,1.01498,0,57,57,57,1,flowers/images/296.jpg,flowers/images/37.jpg,58,Chace Paulson,001,2020-11-21_15h35.57.473,test1,2020.2.5,MacIntel,60,,,,,,,
,,,,z,1.064065,0,58,58,58,1,flowers/images/235.jpg,flowers/images/373.jpg,59,Chace Paulson,001,2020-11-21_15h35.57.473,test1,2020.2.5,MacIntel,60,,,,,,,
,,,,m,2.850485,0,59,59,59,1,flowers/images/173.jpg,flowers/images/93.jpg,60,Chace Paulson,001,2020-11-21_15h35.57.473,test1,2020.2.5,MacIntel,60,,,,,,,
,,,,m,1.670685,0,60,60,60,1,flowers/images/331.jpg,flowers/images/88.jpg,61,Chace Paulson,001,2020-11-21_15h35.57.473,test1,2020.2.5,MacIntel,60,,,,,,,
,,,,z,1.21739,0,61,61,61,1,flowers/images/134.jpg,flowers/images/127.jpg,62,Chace Paulson,001,2020-11-21_15h35.57.473,test1,2020.2.5,MacIntel,60,,,,,,,
,,,,m,1.015965,0,62,62,62,1,flowers/images/285.jpg,flowers/images/201.jpg,63,Chace Paulson,001,2020-11-21_15h35.57.473,test1,2020.2.5,MacIntel,60,,,,,,,
,,,,z,0.950905,0,63,63,63,1,flowers/images/151.jpg,flowers/images/52.jpg,64,Chace Paulson,001,2020-11-21_15h35.57.473,test1,2020.2.5,MacIntel,60,,,,,,,
,,,,z,1.10435,0,64,64,64,1,flowers/images/208.jpg,flowers/images/186.jpg,65,Chace Paulson,001,2020-11-21_15h35.57.473,test1,2020.2.5,MacIntel,60,,,,,,,
,,,,m,1.48061,0,65,65,65,1,flowers/images/80.jpg,flowers/images/124.jpg,66,Chace Paulson,001,2020-11-21_15h35.57.473,test1,2020.2.5,MacIntel,60,,,,,,,
,,,,m,0.94936,0,66,66,66,1,flowers/images/303.jpg,flowers/images/347.jpg,67,Chace Paulson,001,2020-11-21_15h35.57.473,test1,2020.2.5,MacIntel,60,,,,,,,
,,,,m,1.33349,0,67,67,67,1,flowers/images/6.jpg,flowers/images/262.jpg,68,Chace Paulson,001,2020-11-21_15h35.57.473,test1,2020.2.5,MacIntel,60,,,,,,,
,,,,m,2.333835,0,68,68,68,1,flowers/images/85.jpg,flowers/images/20.jpg,69,Chace Paulson,001,2020-11-21_15h35.57.473,test1,2020.2.5,MacIntel,60,,,,,,,
,,,,m,1.40347,0,69,69,69,1,flowers/images/392.jpg,flowers/images/15.jpg,70,Chace Paulson,001,2020-11-21_15h35.57.473,test1,2020.2.5,MacIntel,60,,,,,,,
,,,,z,0.873495,0,70,70,70,1,flowers/images/341.jpg,flowers/images/357.jpg,71,Chace Paulson,001,2020-11-21_15h35.57.473,test1,2020.2.5,MacIntel,60,,,,,,,
,,,,z,1.90035,0,71,71,71,1,flowers/images/293.jpg,flowers/images/158.jpg,72,Chace Paulson,001,2020-11-21_15h35.57.473,test1,2020.2.5,MacIntel,60,,,,,,,
,,,,z,2.133855,0,72,72,72,1,flowers/images/390.jpg,flowers/images/58.jpg,73,Chace Paulson,001,2020-11-21_15h35.57.473,test1,2020.2.5,MacIntel,60,,,,,,,
,,,,z,1.015305,0,73,73,73,1,flowers/images/82.jpg,flowers/images/16.jpg,74,Chace Paulson,001,2020-11-21_15h35.57.473,test1,2020.2.5,MacIntel,60,,,,,,,
,,,,z,2.616295,0,74,74,74,1,flowers/images/336.jpg,flowers/images/130.jpg,75,Chace Paulson,001,2020-11-21_15h35.57.473,test1,2020.2.5,MacIntel,60,,,,,,,
,,,,m,1.48249,0,75,75,75,1,flowers/images/160.jpg,flowers/images/105.jpg,76,Chace Paulson,001,2020-11-21_15h35.57.473,test1,2020.2.5,MacIntel,60,,,,,,,
,,,,z,1.399775,0,76,76,76,1,flowers/images/328.jpg,flowers/images/305.jpg,77,Chace Paulson,001,2020-11-21_15h35.57.473,test1,2020.2.5,MacIntel,60,,,,,,,
,,,,m,1.349915,0,77,77,77,1,flowers/images/180.jpg,flowers/images/249.jpg,78,Chace Paulson,001,2020-11-21_15h35.57.473,test1,2020.2.5,MacIntel,60,,,,,,,
,,,,m,1.051385,0,78,78,78,1,flowers/images/169.jpg,flowers/images/94.jpg,79,Chace Paulson,001,2020-11-21_15h35.57.473,test1,2020.2.5,MacIntel,60,,,,,,,
,,,,z,1.333845,0,79,79,79,1,flowers/images/145.jpg,flowers/images/277.jpg,80,Chace Paulson,001,2020-11-21_15h35.57.473,test1,2020.2.5,MacIntel,60,,,,,,,
,,,,m,1.767215,0,80,80,80,1,flowers/images/358.jpg,flowers/images/197.jpg,81,Chace Paulson,001,2020-11-21_15h35.57.473,test1,2020.2.5,MacIntel,60,,,,,,,
,,,,m,1.75011,0,81,81,81,1,flowers/images/71.jpg,flowers/images/128.jpg,82,Chace Paulson,001,2020-11-21_15h35.57.473,test1,2020.2.5,MacIntel,60,,,,,,,
,,,,z,1.309515,0,82,82,82,1,flowers/images/192.jpg,flowers/images/379.jpg,83,Chace Paulson,001,2020-11-21_15h35.57.473,test1,2020.2.5,MacIntel,60,,,,,,,
,,,,m,2.02248,0,83,83,83,1,flowers/images/189.jpg,flowers/images/271.jpg,84,Chace Paulson,001,2020-11-21_15h35.57.473,test1,2020.2.5,MacIntel,60,,,,,,,
,,,,m,2.320025,0,84,84,84,1,flowers/images/15.jpg,flowers/images/28.jpg,85,Chace Paulson,001,2020-11-21_15h35.57.473,test1,2020.2.5,MacIntel,60,,,,,,,
,,,,z,2.11578,0,85,85,85,1,flowers/images/171.jpg,flowers/images/97.jpg,86,Chace Paulson,001,2020-11-21_15h35.57.473,test1,2020.2.5,MacIntel,60,,,,,,,
,,,,z,2.21204,0,86,86,86,1,flowers/images/287.jpg,flowers/images/29.jpg,87,Chace Paulson,001,2020-11-21_15h35.57.473,test1,2020.2.5,MacIntel,60,,,,,,,
,,,,m,0.88293,0,87,87,87,1,flowers/images/381.jpg,flowers/images/356.jpg,88,Chace Paulson,001,2020-11-21_15h35.57.473,test1,2020.2.5,MacIntel,60,,,,,,,
,,,,m,0.91747,0,88,88,88,1,flowers/images/76.jpg,flowers/images/10.jpg,89,Chace Paulson,001,2020-11-21_15h35.57.473,test1,2020.2.5,MacIntel,60,,,,,,,
,,,,z,0.86739,0,89,89,89,1,flowers/images/239.jpg,flowers/images/226.jpg,90,Chace Paulson,001,2020-11-21_15h35.57.473,test1,2020.2.5,MacIntel,60,,,,,,,
,,,,m,2.443265,0,90,90,90,1,flowers/images/398.jpg,flowers/images/368.jpg,91,Chace Paulson,001,2020-11-21_15h35.57.473,test1,2020.2.5,MacIntel,60,,,,,,,
,,,,m,3.379225,0,91,91,91,1,flowers/images/21.jpg,flowers/images/53.jpg,92,Chace Paulson,001,2020-11-21_15h35.57.473,test1,2020.2.5,MacIntel,60,,,,,,,
,,,,m,1.44153,0,92,92,92,1,flowers/images/352.jpg,flowers/images/230.jpg,93,Chace Paulson,001,2020-11-21_15h35.57.473,test1,2020.2.5,MacIntel,60,,,,,,,
,,,,m,1.3091,0,93,93,93,1,flowers/images/54.jpg,flowers/images/280.jpg,94,Chace Paulson,001,2020-11-21_15h35.57.473,test1,2020.2.5,MacIntel,60,,,,,,,
,,,,z,1.41771,0,94,94,94,1,flowers/images/259.jpg,flowers/images/184.jpg,95,Chace Paulson,001,2020-11-21_15h35.57.473,test1,2020.2.5,MacIntel,60,,,,,,,
,,,,m,1.300985,0,95,95,95,1,flowers/images/7.jpg,flowers/images/137.jpg,96,Chace Paulson,001,2020-11-21_15h35.57.473,test1,2020.2.5,MacIntel,60,,,,,,,
,,,,z,1.04167,0,96,96,96,1,flowers/images/292.jpg,flowers/images/364.jpg,97,Chace Paulson,001,2020-11-21_15h35.57.473,test1,2020.2.5,MacIntel,60,,,,,,,
,,,,z,2.435875,0,97,97,97,1,flowers/images/84.jpg,flowers/images/245.jpg,98,Chace Paulson,001,2020-11-21_15h35.57.473,test1,2020.2.5,MacIntel,60,,,,,,,
,,,,z,2.817235,0,98,98,98,1,flowers/images/141.jpg,flowers/images/183.jpg,99,Chace Paulson,001,2020-11-21_15h35.57.473,test1,2020.2.5,MacIntel,60,,,,,,,
,,,,m,2.050285,0,99,99,99,1,flowers/images/45.jpg,flowers/images/375.jpg,100,Chace Paulson,001,2020-11-21_15h35.57.473,test1,2020.2.5,MacIntel,60,,,,,,,
,,,,z,1.121825,0,100,100,100,1,flowers/images/111.jpg,flowers/images/395.jpg,101,Chace Paulson,001,2020-11-21_15h35.57.473,test1,2020.2.5,MacIntel,60,,,,,,,
,,,,z,1.28626,0,101,101,101,1,flowers/images/46.jpg,flowers/images/360.jpg,102,Chace Paulson,001,2020-11-21_15h35.57.473,test1,2020.2.5,MacIntel,60,,,,,,,
,,,,z,1.41153,0,102,102,102,1,flowers/images/399.jpg,flowers/images/4.jpg,103,Chace Paulson,001,2020-11-21_15h35.57.473,test1,2020.2.5,MacIntel,60,,,,,,,
,,,,z,1.271485,0,103,103,103,1,flowers/images/250.jpg,flowers/images/113.jpg,104,Chace Paulson,001,2020-11-21_15h35.57.473,test1,2020.2.5,MacIntel,60,,,,,,,
,,,,z,1.10798,0,104,104,104,1,flowers/images/359.jpg,flowers/images/283.jpg,105,Chace Paulson,001,2020-11-21_15h35.57.473,test1,2020.2.5,MacIntel,60,,,,,,,
,,,,m,2.15178,0,105,105,105,1,flowers/images/209.jpg,flowers/images/309.jpg,106,Chace Paulson,001,2020-11-21_15h35.57.473,test1,2020.2.5,MacIntel,60,,,,,,,
,,,,m,0.919095,0,106,106,106,1,flowers/images/219.jpg,flowers/images/285.jpg,107,Chace Paulson,001,2020-11-21_15h35.57.473,test1,2020.2.5,MacIntel,60,,,,,,,
,,,,m,0.934505,0,107,107,107,1,flowers/images/159.jpg,flowers/images/377.jpg,108,Chace Paulson,001,2020-11-21_15h35.57.473,test1,2020.2.5,MacIntel,60,,,,,,,
,,,,m,1.65437,0,108,108,108,1,flowers/images/17.jpg,flowers/images/365.jpg,109,Chace Paulson,001,2020-11-21_15h35.57.473,test1,2020.2.5,MacIntel,60,,,,,,,
,,,,m,1.191805,0,109,109,109,1,flowers/images/247.jpg,flowers/images/14.jpg,110,Chace Paulson,001,2020-11-21_15h35.57.473,test1,2020.2.5,MacIntel,60,,,,,,,
,,,,z,1.201045,0,110,110,110,1,flowers/images/357.jpg,flowers/images/229.jpg,111,Chace Paulson,001,2020-11-21_15h35.57.473,test1,2020.2.5,MacIntel,60,,,,,,,
,,,,m,1.085785,0,111,111,111,1,flowers/images/378.jpg,flowers/images/299.jpg,112,Chace Paulson,001,2020-11-21_15h35.57.473,test1,2020.2.5,MacIntel,60,,,,,,,
,,,,z,1.06831,0,112,112,112,1,flowers/images/191.jpg,flowers/images/304.jpg,113,Chace Paulson,001,2020-11-21_15h35.57.473,test1,2020.2.5,MacIntel,60,,,,,,,
,,,,m,1.7194,0,113,113,113,1,flowers/images/195.jpg,flowers/images/44.jpg,114,Chace Paulson,001,2020-11-21_15h35.57.473,test1,2020.2.5,MacIntel,60,,,,,,,
,,,,z,1.567195,0,114,114,114,1,flowers/images/126.jpg,flowers/images/161.jpg,115,Chace Paulson,001,2020-11-21_15h35.57.473,test1,2020.2.5,MacIntel,60,,,,,,,
,,,,z,1.386925,0,115,115,115,1,flowers/images/340.jpg,flowers/images/178.jpg,116,Chace Paulson,001,2020-11-21_15h35.57.473,test1,2020.2.5,MacIntel,60,,,,,,,
,,,,z,2.317975,0,116,116,116,1,flowers/images/201.jpg,flowers/images/21.jpg,117,Chace Paulson,001,2020-11-21_15h35.57.473,test1,2020.2.5,MacIntel,60,,,,,,,
,,,,z,0.749295,0,117,117,117,1,flowers/images/307.jpg,flowers/images/122.jpg,118,Chace Paulson,001,2020-11-21_15h35.57.473,test1,2020.2.5,MacIntel,60,,,,,,,
,,,,m,0.77004,0,118,118,118,1,flowers/images/194.jpg,flowers/images/23.jpg,119,Chace Paulson,001,2020-11-21_15h35.57.473,test1,2020.2.5,MacIntel,60,,,,,,,
,,,,m,0.785695,0,119,119,119,1,flowers/images/318.jpg,flowers/images/293.jpg,120,Chace Paulson,001,2020-11-21_15h35.57.473,test1,2020.2.5,MacIntel,60,,,,,,,
,,,,z,0.89075,0,120,120,120,1,flowers/images/69.jpg,flowers/images/327.jpg,121,Chace Paulson,001,2020-11-21_15h35.57.473,test1,2020.2.5,MacIntel,60,,,,,,,
,,,,m,0.768395,0,121,121,121,1,flowers/images/98.jpg,flowers/images/208.jpg,122,Chace Paulson,001,2020-11-21_15h35.57.473,test1,2020.2.5,MacIntel,60,,,,,,,
,,,,m,1.36947,0,122,122,122,1,flowers/images/184.jpg,flowers/images/96.jpg,123,Chace Paulson,001,2020-11-21_15h35.57.473,test1,2020.2.5,MacIntel,60,,,,,,,
,,,,z,2.02466,0,123,123,123,1,flowers/images/44.jpg,flowers/images/317.jpg,124,Chace Paulson,001,2020-11-21_15h35.57.473,test1,2020.2.5,MacIntel,60,,,,,,,
,,,,z,0.886295,0,124,124,124,1,flowers/images/222.jpg,flowers/images/9.jpg,125,Chace Paulson,001,2020-11-21_15h35.57.473,test1,2020.2.5,MacIntel,60,,,,,,,
,,,,m,1.134185,0,125,125,125,1,flowers/images/218.jpg,flowers/images/153.jpg,126,Chace Paulson,001,2020-11-21_15h35.57.473,test1,2020.2.5,MacIntel,60,,,,,,,
,,,,m,1.02025,0,126,126,126,1,flowers/images/275.jpg,flowers/images/295.jpg,127,Chace Paulson,001,2020-11-21_15h35.57.473,test1,2020.2.5,MacIntel,60,,,,,,,
,,,,m,0.817795,0,127,127,127,1,flowers/images/172.jpg,flowers/images/34.jpg,128,Chace Paulson,001,2020-11-21_15h35.57.473,test1,2020.2.5,MacIntel,60,,,,,,,
,,,,m,0.76586,0,128,128,128,1,flowers/images/345.jpg,flowers/images/89.jpg,129,Chace Paulson,001,2020-11-21_15h35.57.473,test1,2020.2.5,MacIntel,60,,,,,,,
,,,,m,1.02193,0,129,129,129,1,flowers/images/334.jpg,flowers/images/376.jpg,130,Chace Paulson,001,2020-11-21_15h35.57.473,test1,2020.2.5,MacIntel,60,,,,,,,
,,,,z,1.43871,0,130,130,130,1,flowers/images/93.jpg,flowers/images/6.jpg,131,Chace Paulson,001,2020-11-21_15h35.57.473,test1,2020.2.5,MacIntel,60,,,,,,,
,,,,m,0.84389,0,131,131,131,1,flowers/images/183.jpg,flowers/images/76.jpg,132,Chace Paulson,001,2020-11-21_15h35.57.473,test1,2020.2.5,MacIntel,60,,,,,,,
,,,,m,1.76922,0,132,132,132,1,flowers/images/304.jpg,flowers/images/224.jpg,133,Chace Paulson,001,2020-11-21_15h35.57.473,test1,2020.2.5,MacIntel,60,,,,,,,
,,,,m,1.38068,0,133,133,133,1,flowers/images/330.jpg,flowers/images/81.jpg,134,Chace Paulson,001,2020-11-21_15h35.57.473,test1,2020.2.5,MacIntel,60,,,,,,,
,,,,z,1.569555,0,134,134,134,1,flowers/images/147.jpg,flowers/images/36.jpg,135,Chace Paulson,001,2020-11-21_15h35.57.473,test1,2020.2.5,MacIntel,60,,,,,,,
,,,,z,1.18249,0,135,135,135,1,flowers/images/62.jpg,flowers/images/321.jpg,136,Chace Paulson,001,2020-11-21_15h35.57.473,test1,2020.2.5,MacIntel,60,,,,,,,
,,,,z,1.518715,0,136,136,136,1,flowers/images/367.jpg,flowers/images/311.jpg,137,Chace Paulson,001,2020-11-21_15h35.57.473,test1,2020.2.5,MacIntel,60,,,,,,,
,,,,z,1.999555,0,137,137,137,1,flowers/images/326.jpg,flowers/images/7.jpg,138,Chace Paulson,001,2020-11-21_15h35.57.473,test1,2020.2.5,MacIntel,60,,,,,,,
,,,,z,1.01919,0,138,138,138,1,flowers/images/28.jpg,flowers/images/382.jpg,139,Chace Paulson,001,2020-11-21_15h35.57.473,test1,2020.2.5,MacIntel,60,,,,,,,
,,,,z,1.619965,0,139,139,139,1,flowers/images/156.jpg,flowers/images/152.jpg,140,Chace Paulson,001,2020-11-21_15h35.57.473,test1,2020.2.5,MacIntel,60,,,,,,,
,,,,z,2.55442,0,140,140,140,1,flowers/images/113.jpg,flowers/images/167.jpg,141,Chace Paulson,001,2020-11-21_15h35.57.473,test1,2020.2.5,MacIntel,60,,,,,,,
,,,,m,2.670975,0,141,141,141,1,flowers/images/155.jpg,flowers/images/342.jpg,142,Chace Paulson,001,2020-11-21_15h35.57.473,test1,2020.2.5,MacIntel,60,,,,,,,
,,,,m,1.14975,0,142,142,142,1,flowers/images/213.jpg,flowers/images/353.jpg,143,Chace Paulson,001,2020-11-21_15h35.57.473,test1,2020.2.5,MacIntel,60,,,,,,,
,,,,z,1.072195,0,143,143,143,1,flowers/images/298.jpg,flowers/images/90.jpg,144,Chace Paulson,001,2020-11-21_15h35.57.473,test1,2020.2.5,MacIntel,60,,,,,,,
,,,,z,1.5512,0,144,144,144,1,flowers/images/217.jpg,flowers/images/240.jpg,145,Chace Paulson,001,2020-11-21_15h35.57.473,test1,2020.2.5,MacIntel,60,,,,,,,
,,,,m,0.74254,0,145,145,145,1,flowers/images/97.jpg,flowers/images/133.jpg,146,Chace Paulson,001,2020-11-21_15h35.57.473,test1,2020.2.5,MacIntel,60,,,,,,,
,,,,z,1.399045,0,146,146,146,1,flowers/images/354.jpg,flowers/images/310.jpg,147,Chace Paulson,001,2020-11-21_15h35.57.473,test1,2020.2.5,MacIntel,60,,,,,,,
,,,,m,1.67185,0,147,147,147,1,flowers/images/377.jpg,flowers/images/273.jpg,148,Chace Paulson,001,2020-11-21_15h35.57.473,test1,2020.2.5,MacIntel,60,,,,,,,
,,,,z,1.15172,0,148,148,148,1,flowers/images/121.jpg,flowers/images/294.jpg,149,Chace Paulson,001,2020-11-21_15h35.57.473,test1,2020.2.5,MacIntel,60,,,,,,,
,,,,m,1.14976,0,149,149,149,1,flowers/images/14.jpg,flowers/images/101.jpg,150,Chace Paulson,001,2020-11-21_15h35.57.473,test1,2020.2.5,MacIntel,60,,,,,,,
,,,,m,1.070165,0,150,150,150,1,flowers/images/321.jpg,flowers/images/51.jpg,151,Chace Paulson,001,2020-11-21_15h35.57.473,test1,2020.2.5,MacIntel,60,,,,,,,
,,,,m,1.08525,0,151,151,151,1,flowers/images/362.jpg,flowers/images/175.jpg,152,Chace Paulson,001,2020-11-21_15h35.57.473,test1,2020.2.5,MacIntel,60,,,,,,,
,,,,z,0.993655,0,152,152,152,1,flowers/images/203.jpg,flowers/images/248.jpg,153,Chace Paulson,001,2020-11-21_15h35.57.473,test1,2020.2.5,MacIntel,60,,,,,,,
,,,,m,1.37684,0,153,153,153,1,flowers/images/12.jpg,flowers/images/300.jpg,154,Chace Paulson,001,2020-11-21_15h35.57.473,test1,2020.2.5,MacIntel,60,,,,,,,
,,,,z,3.068765,0,154,154,154,1,flowers/images/365.jpg,flowers/images/218.jpg,155,Chace Paulson,001,2020-11-21_15h35.57.473,test1,2020.2.5,MacIntel,60,,,,,,,
,,,,z,1.1897,0,155,155,155,1,flowers/images/75.jpg,flowers/images/109.jpg,156,Chace Paulson,001,2020-11-21_15h35.57.473,test1,2020.2.5,MacIntel,60,,,,,,,
,,,,m,0.89175,0,156,156,156,1,flowers/images/127.jpg,flowers/images/333.jpg,157,Chace Paulson,001,2020-11-21_15h35.57.473,test1,2020.2.5,MacIntel,60,,,,,,,
,,,,z,1.49079,0,157,157,157,1,flowers/images/258.jpg,flowers/images/135.jpg,158,Chace Paulson,001,2020-11-21_15h35.57.473,test1,2020.2.5,MacIntel,60,,,,,,,
,,,,z,1.65861,0,158,158,158,1,flowers/images/343.jpg,flowers/images/65.jpg,159,Chace Paulson,001,2020-11-21_15h35.57.473,test1,2020.2.5,MacIntel,60,,,,,,,
,,,,m,1.28537,0,159,159,159,1,flowers/images/58.jpg,flowers/images/138.jpg,160,Chace Paulson,001,2020-11-21_15h35.57.473,test1,2020.2.5,MacIntel,60,,,,,,,
,,,,z,1.36842,0,160,160,160,1,flowers/images/94.jpg,flowers/images/234.jpg,161,Chace Paulson,001,2020-11-21_15h35.57.473,test1,2020.2.5,MacIntel,60,,,,,,,
,,,,m,1.258065,0,161,161,161,1,flowers/images/379.jpg,flowers/images/207.jpg,162,Chace Paulson,001,2020-11-21_15h35.57.473,test1,2020.2.5,MacIntel,60,,,,,,,
,,,,m,3.249895,0,162,162,162,1,flowers/images/128.jpg,flowers/images/79.jpg,163,Chace Paulson,001,2020-11-21_15h35.57.473,test1,2020.2.5,MacIntel,60,,,,,,,
,,,,z,1.041425,0,163,163,163,1,flowers/images/47.jpg,flowers/images/85.jpg,164,Chace Paulson,001,2020-11-21_15h35.57.473,test1,2020.2.5,MacIntel,60,,,,,,,
,,,,m,1.27145,0,164,164,164,1,flowers/images/19.jpg,flowers/images/191.jpg,165,Chace Paulson,001,2020-11-21_15h35.57.473,test1,2020.2.5,MacIntel,60,,,,,,,
,,,,z,1.586275,0,165,165,165,1,flowers/images/32.jpg,flowers/images/259.jpg,166,Chace Paulson,001,2020-11-21_15h35.57.473,test1,2020.2.5,MacIntel,60,,,,,,,
,,,,m,1.06791,0,166,166,166,1,flowers/images/323.jpg,flowers/images/284.jpg,167,Chace Paulson,001,2020-11-21_15h35.57.473,test1,2020.2.5,MacIntel,60,,,,,,,
,,,,z,3.22545,0,167,167,167,1,flowers/images/395.jpg,flowers/images/348.jpg,168,Chace Paulson,001,2020-11-21_15h35.57.473,test1,2020.2.5,MacIntel,60,,,,,,,
,,,,m,1.16722,0,168,168,168,1,flowers/images/279.jpg,flowers/images/370.jpg,169,Chace Paulson,001,2020-11-21_15h35.57.473,test1,2020.2.5,MacIntel,60,,,,,,,
,,,,z,1.775215,0,169,169,169,1,flowers/images/264.jpg,flowers/images/125.jpg,170,Chace Paulson,001,2020-11-21_15h35.57.473,test1,2020.2.5,MacIntel,60,,,,,,,
,,,,m,1.020655,0,170,170,170,1,flowers/images/77.jpg,flowers/images/318.jpg,171,Chace Paulson,001,2020-11-21_15h35.57.473,test1,2020.2.5,MacIntel,60,,,,,,,
,,,,z,0.938035,0,171,171,171,1,flowers/images/376.jpg,flowers/images/242.jpg,172,Chace Paulson,001,2020-11-21_15h35.57.473,test1,2020.2.5,MacIntel,60,,,,,,,
,,,,m,0.91865,0,172,172,172,1,flowers/images/351.jpg,flowers/images/132.jpg,173,Chace Paulson,001,2020-11-21_15h35.57.473,test1,2020.2.5,MacIntel,60,,,,,,,
,,,,z,1.13355,0,173,173,173,1,flowers/images/305.jpg,flowers/images/252.jpg,174,Chace Paulson,001,2020-11-21_15h35.57.473,test1,2020.2.5,MacIntel,60,,,,,,,
,,,,z,1.039915,0,174,174,174,1,flowers/images/29.jpg,flowers/images/217.jpg,175,Chace Paulson,001,2020-11-21_15h35.57.473,test1,2020.2.5,MacIntel,60,,,,,,,
,,,,m,1.66866,0,175,175,175,1,flowers/images/3.jpg,flowers/images/228.jpg,176,Chace Paulson,001,2020-11-21_15h35.57.473,test1,2020.2.5,MacIntel,60,,,,,,,
,,,,m,1.148785,0,176,176,176,1,flowers/images/199.jpg,flowers/images/330.jpg,177,Chace Paulson,001,2020-11-21_15h35.57.473,test1,2020.2.5,MacIntel,60,,,,,,,
,,,,z,0.7586,0,177,177,177,1,flowers/images/274.jpg,flowers/images/179.jpg,178,Chace Paulson,001,2020-11-21_15h35.57.473,test1,2020.2.5,MacIntel,60,,,,,,,
,,,,z,1.13321,0,178,178,178,1,flowers/images/346.jpg,flowers/images/290.jpg,179,Chace Paulson,001,2020-11-21_15h35.57.473,test1,2020.2.5,MacIntel,60,,,,,,,
,,,,m,1.02141,0,179,179,179,1,flowers/images/56.jpg,flowers/images/204.jpg,180,Chace Paulson,001,2020-11-21_15h35.57.473,test1,2020.2.5,MacIntel,60,,,,,,,
,,,,m,1.50204,0,180,180,180,1,flowers/images/179.jpg,flowers/images/114.jpg,181,Chace Paulson,001,2020-11-21_15h35.57.473,test1,2020.2.5,MacIntel,60,,,,,,,
,,,,m,0.966385,0,181,181,181,1,flowers/images/36.jpg,flowers/images/223.jpg,182,Chace Paulson,001,2020-11-21_15h35.57.473,test1,2020.2.5,MacIntel,60,,,,,,,
,,,,m,1.12065,0,182,182,182,1,flowers/images/344.jpg,flowers/images/168.jpg,183,Chace Paulson,001,2020-11-21_15h35.57.473,test1,2020.2.5,MacIntel,60,,,,,,,
,,,,z,1.503425,0,183,183,183,1,flowers/images/153.jpg,flowers/images/22.jpg,184,Chace Paulson,001,2020-11-21_15h35.57.473,test1,2020.2.5,MacIntel,60,,,,,,,
,,,,z,1.24101,0,184,184,184,1,flowers/images/39.jpg,flowers/images/323.jpg,185,Chace Paulson,001,2020-11-21_15h35.57.473,test1,2020.2.5,MacIntel,60,,,,,,,
,,,,m,1.25306,0,185,185,185,1,flowers/images/327.jpg,flowers/images/349.jpg,186,Chace Paulson,001,2020-11-21_15h35.57.473,test1,2020.2.5,MacIntel,60,,,,,,,
,,,,z,1.351495,0,186,186,186,1,flowers/images/81.jpg,flowers/images/30.jpg,187,Chace Paulson,001,2020-11-21_15h35.57.473,test1,2020.2.5,MacIntel,60,,,,,,,
,,,,m,1.37012,0,187,187,187,1,flowers/images/42.jpg,flowers/images/107.jpg,188,Chace Paulson,001,2020-11-21_15h35.57.473,test1,2020.2.5,MacIntel,60,,,,,,,
,,,,z,3.148375,0,188,188,188,1,flowers/images/18.jpg,flowers/images/358.jpg,189,Chace Paulson,001,2020-11-21_15h35.57.473,test1,2020.2.5,MacIntel,60,,,,,,,
,,,,z,1.066475,0,189,189,189,1,flowers/images/200.jpg,flowers/images/385.jpg,190,Chace Paulson,001,2020-11-21_15h35.57.473,test1,2020.2.5,MacIntel,60,,,,,,,
,,,,m,1.336615,0,190,190,190,1,flowers/images/369.jpg,flowers/images/233.jpg,191,Chace Paulson,001,2020-11-21_15h35.57.473,test1,2020.2.5,MacIntel,60,,,,,,,
,,,,z,1.468065,0,191,191,191,1,flowers/images/309.jpg,flowers/images/320.jpg,192,Chace Paulson,001,2020-11-21_15h35.57.473,test1,2020.2.5,MacIntel,60,,,,,,,
,,,,z,1.4202,0,192,192,192,1,flowers/images/64.jpg,flowers/images/303.jpg,193,Chace Paulson,001,2020-11-21_15h35.57.473,test1,2020.2.5,MacIntel,60,,,,,,,
,,,,m,1.372145,0,193,193,193,1,flowers/images/86.jpg,flowers/images/216.jpg,194,Chace Paulson,001,2020-11-21_15h35.57.473,test1,2020.2.5,MacIntel,60,,,,,,,
,,,,m,1.452355,0,194,194,194,1,flowers/images/260.jpg,flowers/images/361.jpg,195,Chace Paulson,001,2020-11-21_15h35.57.473,test1,2020.2.5,MacIntel,60,,,,,,,
,,,,m,1.10283,0,195,195,195,1,flowers/images/9.jpg,flowers/images/173.jpg,196,Chace Paulson,001,2020-11-21_15h35.57.473,test1,2020.2.5,MacIntel,60,,,,,,,
,,,,m,0.8044,0,196,196,196,1,flowers/images/22.jpg,flowers/images/41.jpg,197,Chace Paulson,001,2020-11-21_15h35.57.473,test1,2020.2.5,MacIntel,60,,,,,,,
,,,,m,1.30366,0,197,197,197,1,flowers/images/214.jpg,flowers/images/145.jpg,198,Chace Paulson,001,2020-11-21_15h35.57.473,test1,2020.2.5,MacIntel,60,,,,,,,
,,,,z,0.974185,0,198,198,198,1,flowers/images/72.jpg,flowers/images/308.jpg,199,Chace Paulson,001,2020-11-21_15h35.57.473,test1,2020.2.5,MacIntel,60,,,,,,,
,,,,z,1.73538,0,199,199,199,1,flowers/images/34.jpg,flowers/images/237.jpg,200,Chace Paulson,001,2020-11-21_15h35.57.473,test1,2020.2.5,MacIntel,60,,,,,,,
,,,,z,2.836625,,,,,,flowers/images/166.jpg,flowers/images/169.jpg,1,Chace Paulson,001,2020-11-21_15h35.57.473,test1,2020.2.5,MacIntel,60,space,1.71456,0,0,0,0,1
,,,,m,1.545925,,,,,,flowers/images/161.jpg,flowers/images/68.jpg,2,Chace Paulson,001,2020-11-21_15h35.57.473,test1,2020.2.5,MacIntel,60,,,0,1,1,1,1
,,,,z,1.314745,,,,,,flowers/images/319.jpg,flowers/images/341.jpg,3,Chace Paulson,001,2020-11-21_15h35.57.473,test1,2020.2.5,MacIntel,60,,,0,2,2,2,1
,,,,z,0.919065,,,,,,flowers/images/322.jpg,flowers/images/111.jpg,4,Chace Paulson,001,2020-11-21_15h35.57.473,test1,2020.2.5,MacIntel,60,,,0,3,3,3,1
,,,,z,1.09702,,,,,,flowers/images/2.jpg,flowers/images/95.jpg,5,Chace Paulson,001,2020-11-21_15h35.57.473,test1,2020.2.5,MacIntel,60,,,0,4,4,4,1
,,,,m,0.9089,,,,,,flowers/images/276.jpg,flowers/images/66.jpg,6,Chace Paulson,001,2020-11-21_15h35.57.473,test1,2020.2.5,MacIntel,60,,,0,5,5,5,1
,,,,m,1.232195,,,,,,flowers/images/116.jpg,flowers/images/206.jpg,7,Chace Paulson,001,2020-11-21_15h35.57.473,test1,2020.2.5,MacIntel,60,,,0,6,6,6,1
,,,,z,0.760085,,,,,,flowers/images/282.jpg,flowers/images/314.jpg,8,Chace Paulson,001,2020-11-21_15h35.57.473,test1,2020.2.5,MacIntel,60,,,0,7,7,7,1
,,,,m,0.96995,,,,,,flowers/images/261.jpg,flowers/images/260.jpg,9,Chace Paulson,001,2020-11-21_15h35.57.473,test1,2020.2.5,MacIntel,60,,,0,8,8,8,1
,,,,z,1.30239,,,,,,flowers/images/353.jpg,flowers/images/151.jpg,10,Chace Paulson,001,2020-11-21_15h35.57.473,test1,2020.2.5,MacIntel,60,,,0,9,9,9,1
,,,,m,1.688955,,,,,,flowers/images/216.jpg,flowers/images/156.jpg,11,Chace Paulson,001,2020-11-21_15h35.57.473,test1,2020.2.5,MacIntel,60,,,0,10,10,10,1
,,,,m,1.068775,,,,,,flowers/images/320.jpg,flowers/images/292.jpg,12,Chace Paulson,001,2020-11-21_15h35.57.473,test1,2020.2.5,MacIntel,60,,,0,11,11,11,1
,,,,m,0.886545,,,,,,flowers/images/149.jpg,flowers/images/279.jpg,13,Chace Paulson,001,2020-11-21_15h35.57.473,test1,2020.2.5,MacIntel,60,,,0,12,12,12,1
,,,,m,1.48624,,,,,,flowers/images/163.jpg,flowers/images/219.jpg,14,Chace Paulson,001,2020-11-21_15h35.57.473,test1,2020.2.5,MacIntel,60,,,0,13,13,13,1
,,,,m,0.957415,,,,,,flowers/images/10.jpg,flowers/images/232.jpg,15,Chace Paulson,001,2020-11-21_15h35.57.473,test1,2020.2.5,MacIntel,60,,,0,14,14,14,1
,,,,m,0.73358,,,,,,flowers/images/55.jpg,flowers/images/73.jpg,16,Chace Paulson,001,2020-11-21_15h35.57.473,test1,2020.2.5,MacIntel,60,,,0,15,15,15,1
,,,,m,0.99131,,,,,,flowers/images/123.jpg,flowers/images/189.jpg,17,Chace Paulson,001,2020-11-21_15h35.57.473,test1,2020.2.5,MacIntel,60,,,0,16,16,16,1
,,,,m,0.73541,,,,,,flowers/images/37.jpg,flowers/images/254.jpg,18,Chace Paulson,001,2020-11-21_15h35.57.473,test1,2020.2.5,MacIntel,60,,,0,17,17,17,1
,,,,m,1.24947,,,,,,flowers/images/230.jpg,flowers/images/166.jpg,19,Chace Paulson,001,2020-11-21_15h35.57.473,test1,2020.2.5,MacIntel,60,,,0,18,18,18,1
,,,,m,0.771685,,,,,,flowers/images/338.jpg,flowers/images/33.jpg,20,Chace Paulson,001,2020-11-21_15h35.57.473,test1,2020.2.5,MacIntel,60,,,0,19,19,19,1
,,,,z,1.40446,,,,,,flowers/images/337.jpg,flowers/images/193.jpg,21,Chace Paulson,001,2020-11-21_15h35.57.473,test1,2020.2.5,MacIntel,60,,,0,20,20,20,1
,,,,m,1.327525,,,,,,flowers/images/83.jpg,flowers/images/339.jpg,22,Chace Paulson,001,2020-11-21_15h35.57.473,test1,2020.2.5,MacIntel,60,,,0,21,21,21,1
,,,,z,2.745715,,,,,,flowers/images/190.jpg,flowers/images/99.jpg,23,Chace Paulson,001,2020-11-21_15h35.57.473,test1,2020.2.5,MacIntel,60,,,0,22,22,22,1
,,,,z,0.936305,,,,,,flowers/images/257.jpg,flowers/images/369.jpg,24,Chace Paulson,001,2020-11-21_15h35.57.473,test1,2020.2.5,MacIntel,60,,,0,23,23,23,1
,,,,m,0.97253,,,,,,flowers/images/280.jpg,flowers/images/355.jpg,25,Chace Paulson,001,2020-11-21_15h35.57.473,test1,2020.2.5,MacIntel,60,,,0,24,24,24,1
,,,,m,1.23468,,,,,,flowers/images/105.jpg,flowers/images/338.jpg,26,Chace Paulson,001,2020-11-21_15h35.57.473,test1,2020.2.5,MacIntel,60,,,0,25,25,25,1
,,,,m,1.31888,,,,,,flowers/images/202.jpg,flowers/images/3.jpg,27,Chace Paulson,001,2020-11-21_15h35.57.473,test1,2020.2.5,MacIntel,60,,,0,26,26,26,1
,,,,m,0.852705,,,,,,flowers/images/212.jpg,flowers/images/38.jpg,28,Chace Paulson,001,2020-11-21_15h35.57.473,test1,2020.2.5,MacIntel,60,,,0,27,27,27,1
,,,,z,2.45114,,,,,,flowers/images/152.jpg,flowers/images/0.jpg,29,Chace Paulson,001,2020-11-21_15h35.57.473,test1,2020.2.5,MacIntel,60,,,0,28,28,28,1
,,,,z,0.770495,,,,,,flowers/images/170.jpg,flowers/images/296.jpg,30,Chace Paulson,001,2020-11-21_15h35.57.473,test1,2020.2.5,MacIntel,60,,,0,29,29,29,1
,,,,z,0.921425,,,,,,flowers/images/74.jpg,flowers/images/80.jpg,31,Chace Paulson,001,2020-11-21_15h35.57.473,test1,2020.2.5,MacIntel,60,,,0,30,30,30,1
,,,,m,0.90305,,,,,,flowers/images/226.jpg,flowers/images/117.jpg,32,Chace Paulson,001,2020-11-21_15h35.57.473,test1,2020.2.5,MacIntel,60,,,0,31,31,31,1
,,,,m,0.717095,,,,,,flowers/images/1.jpg,flowers/images/19.jpg,33,Chace Paulson,001,2020-11-21_15h35.57.473,test1,2020.2.5,MacIntel,60,,,0,32,32,32,1
,,,,m,0.889705,,,,,,flowers/images/182.jpg,flowers/images/335.jpg,34,Chace Paulson,001,2020-11-21_15h35.57.473,test1,2020.2.5,MacIntel,60,,,0,33,33,33,1
,,,,m,1.058925,,,,,,flowers/images/245.jpg,flowers/images/62.jpg,35,Chace Paulson,001,2020-11-21_15h35.57.473,test1,2020.2.5,MacIntel,60,,,0,34,34,34,1
,,,,m,1.25351,,,,,,flowers/images/167.jpg,flowers/images/49.jpg,36,Chace Paulson,001,2020-11-21_15h35.57.473,test1,2020.2.5,MacIntel,60,,,0,35,35,35,1
,,,,z,1.734885,,,,,,flowers/images/38.jpg,flowers/images/250.jpg,37,Chace Paulson,001,2020-11-21_15h35.57.473,test1,2020.2.5,MacIntel,60,,,0,36,36,36,1
,,,,m,1.1204,,,,,,flowers/images/124.jpg,flowers/images/324.jpg,38,Chace Paulson,001,2020-11-21_15h35.57.473,test1,2020.2.5,MacIntel,60,,,0,37,37,37,1
,,,,m,1.06686,,,,,,flowers/images/92.jpg,flowers/images/13.jpg,39,Chace Paulson,001,2020-11-21_15h35.57.473,test1,2020.2.5,MacIntel,60,,,0,38,38,38,1
,,,,m,1.418735,,,,,,flowers/images/120.jpg,flowers/images/374.jpg,40,Chace Paulson,001,2020-11-21_15h35.57.473,test1,2020.2.5,MacIntel,60,,,0,39,39,39,1
,,,,z,0.64045,,,,,,flowers/images/350.jpg,flowers/images/100.jpg,41,Chace Paulson,001,2020-11-21_15h35.57.473,test1,2020.2.5,MacIntel,60,,,0,40,40,40,1
,,,,z,0.886265,,,,,,flowers/images/68.jpg,flowers/images/236.jpg,42,Chace Paulson,001,2020-11-21_15h35.57.473,test1,2020.2.5,MacIntel,60,,,0,41,41,41,1
,,,,m,1.1354,,,,,,flowers/images/5.jpg,flowers/images/340.jpg,43,Chace Paulson,001,2020-11-21_15h35.57.473,test1,2020.2.5,MacIntel,60,,,0,42,42,42,1
,,,,z,1.274515,,,,,,flowers/images/99.jpg,flowers/images/313.jpg,44,Chace Paulson,001,2020-11-21_15h35.57.473,test1,2020.2.5,MacIntel,60,,,0,43,43,43,1
,,,,m,1.785515,,,,,,flowers/images/229.jpg,flowers/images/177.jpg,45,Chace Paulson,001,2020-11-21_15h35.57.473,test1,2020.2.5,MacIntel,60,,,0,44,44,44,1
,,,,z,1.13512,,,,,,flowers/images/361.jpg,flowers/images/383.jpg,46,Chace Paulson,001,2020-11-21_15h35.57.473,test1,2020.2.5,MacIntel,60,,,0,45,45,45,1
,,,,m,1.352325,,,,,,flowers/images/129.jpg,flowers/images/398.jpg,47,Chace Paulson,001,2020-11-21_15h35.57.473,test1,2020.2.5,MacIntel,60,,,0,46,46,46,1
,,,,z,0.817685,,,,,,flowers/images/228.jpg,flowers/images/159.jpg,48,Chace Paulson,001,2020-11-21_15h35.57.473,test1,2020.2.5,MacIntel,60,,,0,47,47,47,1
,,,,m,1.37035,,,,,,flowers/images/65.jpg,flowers/images/312.jpg,49,Chace Paulson,001,2020-11-21_15h35.57.473,test1,2020.2.5,MacIntel,60,,,0,48,48,48,1
,,,,m,0.919695,,,,,,flowers/images/73.jpg,flowers/images/163.jpg,50,Chace Paulson,001,2020-11-21_15h35.57.473,test1,2020.2.5,MacIntel,60,,,0,49,49,49,1
,,,,m,1.119985,,,,,,flowers/images/224.jpg,flowers/images/278.jpg,51,Chace Paulson,001,2020-11-21_15h35.57.473,test1,2020.2.5,MacIntel,60,,,0,50,50,50,1
,,,,m,1.01792,,,,,,flowers/images/312.jpg,flowers/images/185.jpg,52,Chace Paulson,001,2020-11-21_15h35.57.473,test1,2020.2.5,MacIntel,60,,,0,51,51,51,1
,,,,m,1.062685,,,,,,flowers/images/256.jpg,flowers/images/112.jpg,53,Chace Paulson,001,2020-11-21_15h35.57.473,test1,2020.2.5,MacIntel,60,,,0,52,52,52,1
,,,,m,1.20558,,,,,,flowers/images/26.jpg,flowers/images/261.jpg,54,Chace Paulson,001,2020-11-21_15h35.57.473,test1,2020.2.5,MacIntel,60,,,0,53,53,53,1
,,,,m,1.15136,,,,,,flowers/images/51.jpg,flowers/images/106.jpg,55,Chace Paulson,001,2020-11-21_15h35.57.473,test1,2020.2.5,MacIntel,60,,,0,54,54,54,1
,,,,m,1.084525,,,,,,flowers/images/371.jpg,flowers/images/160.jpg,56,Chace Paulson,001,2020-11-21_15h35.57.473,test1,2020.2.5,MacIntel,60,,,0,55,55,55,1
,,,,z,0.98461,,,,,,flowers/images/59.jpg,flowers/images/257.jpg,57,Chace Paulson,001,2020-11-21_15h35.57.473,test1,2020.2.5,MacIntel,60,,,0,56,56,56,1
,,,,z,0.972,,,,,,flowers/images/347.jpg,flowers/images/190.jpg,58,Chace Paulson,001,2020-11-21_15h35.57.473,test1,2020.2.5,MacIntel,60,,,0,57,57,57,1
,,,,z,0.686045,,,,,,flowers/images/8.jpg,flowers/images/209.jpg,59,Chace Paulson,001,2020-11-21_15h35.57.473,test1,2020.2.5,MacIntel,60,,,0,58,58,58,1
,,,,z,1.271235,,,,,,flowers/images/278.jpg,flowers/images/31.jpg,60,Chace Paulson,001,2020-11-21_15h35.57.473,test1,2020.2.5,MacIntel,60,,,0,59,59,59,1
,,,,z,0.768275,,,,,,flowers/images/262.jpg,flowers/images/325.jpg,61,Chace Paulson,001,2020-11-21_15h35.57.473,test1,2020.2.5,MacIntel,60,,,0,60,60,60,1
,,,,m,0.8837,,,,,,flowers/images/273.jpg,flowers/images/83.jpg,62,Chace Paulson,001,2020-11-21_15h35.57.473,test1,2020.2.5,MacIntel,60,,,0,61,61,61,1
,,,,m,0.902055,,,,,,flowers/images/52.jpg,flowers/images/17.jpg,63,Chace Paulson,001,2020-11-21_15h35.57.473,test1,2020.2.5,MacIntel,60,,,0,62,62,62,1
,,,,m,0.86457,,,,,,flowers/images/243.jpg,flowers/images/27.jpg,64,Chace Paulson,001,2020-11-21_15h35.57.473,test1,2020.2.5,MacIntel,60,,,0,63,63,63,1
,,,,z,1.035125,,,,,,flowers/images/175.jpg,flowers/images/192.jpg,65,Chace Paulson,001,2020-11-21_15h35.57.473,test1,2020.2.5,MacIntel,60,,,0,64,64,64,1
,,,,z,1.252485,,,,,,flowers/images/53.jpg,flowers/images/199.jpg,66,Chace Paulson,001,2020-11-21_15h35.57.473,test1,2020.2.5,MacIntel,60,,,0,65,65,65,1
,,,,z,1.09827,,,,,,flowers/images/316.jpg,flowers/images/381.jpg,67,Chace Paulson,001,2020-11-21_15h35.57.473,test1,2020.2.5,MacIntel,60,,,0,66,66,66,1
,,,,m,1.07504,,,,,,flowers/images/249.jpg,flowers/images/213.jpg,68,Chace Paulson,001,2020-11-21_15h35.57.473,test1,2020.2.5,MacIntel,60,,,0,67,67,67,1
,,,,m,0.71907,,,,,,flowers/images/70.jpg,flowers/images/60.jpg,69,Chace Paulson,001,2020-11-21_15h35.57.473,test1,2020.2.5,MacIntel,60,,,0,68,68,68,1
,,,,m,1.3269,,,,,,flowers/images/300.jpg,flowers/images/386.jpg,70,Chace Paulson,001,2020-11-21_15h35.57.473,test1,2020.2.5,MacIntel,60,,,0,69,69,69,1
,,,,z,1.337685,,,,,,flowers/images/162.jpg,flowers/images/149.jpg,71,Chace Paulson,001,2020-11-21_15h35.57.473,test1,2020.2.5,MacIntel,60,,,0,70,70,70,1
,,,,z,1.692935,,,,,,flowers/images/146.jpg,flowers/images/336.jpg,72,Chace Paulson,001,2020-11-21_15h35.57.473,test1,2020.2.5,MacIntel,60,,,0,71,71,71,1
,,,,z,1.438855,,,,,,flowers/images/115.jpg,flowers/images/120.jpg,73,Chace Paulson,001,2020-11-21_15h35.57.473,test1,2020.2.5,MacIntel,60,,,0,72,72,72,1
,,,,m,0.73503,,,,,,flowers/images/311.jpg,flowers/images/123.jpg,74,Chace Paulson,001,2020-11-21_15h35.57.473,test1,2020.2.5,MacIntel,60,,,0,73,73,73,1
,,,,m,0.918705,,,,,,flowers/images/33.jpg,flowers/images/146.jpg,75,Chace Paulson,001,2020-11-21_15h35.57.473,test1,2020.2.5,MacIntel,60,,,0,74,74,74,1
,,,,m,3.01858,,,,,,flowers/images/78.jpg,flowers/images/352.jpg,76,Chace Paulson,001,2020-11-21_15h35.57.473,test1,2020.2.5,MacIntel,60,,,0,75,75,75,1
,,,,z,1.299285,,,,,,flowers/images/43.jpg,flowers/images/50.jpg,77,Chace Paulson,001,2020-11-21_15h35.57.473,test1,2020.2.5,MacIntel,60,,,0,76,76,76,1
,,,,z,1.004515,,,,,,flowers/images/373.jpg,flowers/images/78.jpg,78,Chace Paulson,001,2020-11-21_15h35.57.473,test1,2020.2.5,MacIntel,60,,,0,77,77,77,1
,,,,m,1.56884,,,,,,flowers/images/233.jpg,flowers/images/134.jpg,79,Chace Paulson,001,2020-11-21_15h35.57.473,test1,2020.2.5,MacIntel,60,,,0,78,78,78,1
,,,,z,1.468535,,,,,,flowers/images/386.jpg,flowers/images/390.jpg,80,Chace Paulson,001,2020-11-21_15h35.57.473,test1,2020.2.5,MacIntel,60,,,0,79,79,79,1
,,,,m,1.688035,,,,,,flowers/images/205.jpg,flowers/images/388.jpg,81,Chace Paulson,001,2020-11-21_15h35.57.473,test1,2020.2.5,MacIntel,60,,,0,80,80,80,1
,,,,m,1.56284,,,,,,flowers/images/130.jpg,flowers/images/48.jpg,82,Chace Paulson,001,2020-11-21_15h35.57.473,test1,2020.2.5,MacIntel,60,,,0,81,81,81,1
,,,,z,1.559165,,,,,,flowers/images/187.jpg,flowers/images/253.jpg,83,Chace Paulson,001,2020-11-21_15h35.57.473,test1,2020.2.5,MacIntel,60,,,0,82,82,82,1
,,,,m,1.28275,,,,,,flowers/images/232.jpg,flowers/images/141.jpg,84,Chace Paulson,001,2020-11-21_15h35.57.473,test1,2020.2.5,MacIntel,60,,,0,83,83,83,1
,,,,z,0.912775,,,,,,flowers/images/253.jpg,flowers/images/71.jpg,85,Chace Paulson,001,2020-11-21_15h35.57.473,test1,2020.2.5,MacIntel,60,,,0,84,84,84,1
,,,,m,0.74706,,,,,,flowers/images/332.jpg,flowers/images/322.jpg,86,Chace Paulson,001,2020-11-21_15h35.57.473,test1,2020.2.5,MacIntel,60,,,0,85,85,85,1
,,,,m,1.06365,,,,,,flowers/images/103.jpg,flowers/images/182.jpg,87,Chace Paulson,001,2020-11-21_15h35.57.473,test1,2020.2.5,MacIntel,60,,,0,86,86,86,1
,,,,z,0.843635,,,,,,flowers/images/271.jpg,flowers/images/103.jpg,88,Chace Paulson,001,2020-11-21_15h35.57.473,test1,2020.2.5,MacIntel,60,,,0,87,87,87,1
,,,,m,0.940105,,,,,,flowers/images/63.jpg,flowers/images/227.jpg,89,Chace Paulson,001,2020-11-21_15h35.57.473,test1,2020.2.5,MacIntel,60,,,0,88,88,88,1
,,,,m,0.99341,,,,,,flowers/images/382.jpg,flowers/images/359.jpg,90,Chace Paulson,001,2020-11-21_15h35.57.473,test1,2020.2.5,MacIntel,60,,,0,89,89,89,1
,,,,m,0.822075,,,,,,flowers/images/252.jpg,flowers/images/87.jpg,91,Chace Paulson,001,2020-11-21_15h35.57.473,test1,2020.2.5,MacIntel,60,,,0,90,90,90,1
,,,,m,0.98562,,,,,,flowers/images/101.jpg,flowers/images/196.jpg,92,Chace Paulson,001,2020-11-21_15h35.57.473,test1,2020.2.5,MacIntel,60,,,0,91,91,91,1
,,,,m,0.95215,,,,,,flowers/images/104.jpg,flowers/images/270.jpg,93,Chace Paulson,001,2020-11-21_15h35.57.473,test1,2020.2.5,MacIntel,60,,,0,92,92,92,1
,,,,z,1.04142,,,,,,flowers/images/270.jpg,flowers/images/108.jpg,94,Chace Paulson,001,2020-11-21_15h35.57.473,test1,2020.2.5,MacIntel,60,,,0,93,93,93,1
,,,,m,0.803565,,,,,,flowers/images/0.jpg,flowers/images/143.jpg,95,Chace Paulson,001,2020-11-21_15h35.57.473,test1,2020.2.5,MacIntel,60,,,0,94,94,94,1
,,,,z,1.03443,,,,,,flowers/images/348.jpg,flowers/images/276.jpg,96,Chace Paulson,001,2020-11-21_15h35.57.473,test1,2020.2.5,MacIntel,60,,,0,95,95,95,1
,,,,z,0.966835,,,,,,flowers/images/251.jpg,flowers/images/55.jpg,97,Chace Paulson,001,2020-11-21_15h35.57.473,test1,2020.2.5,MacIntel,60,,,0,96,96,96,1
,,,,m,1.331225,,,,,,flowers/images/119.jpg,flowers/images/43.jpg,98,Chace Paulson,001,2020-11-21_15h35.57.473,test1,2020.2.5,MacIntel,60,,,0,97,97,97,1
,,,,m,1.25713,,,,,,flowers/images/158.jpg,flowers/images/46.jpg,99,Chace Paulson,001,2020-11-21_15h35.57.473,test1,2020.2.5,MacIntel,60,,,0,98,98,98,1
,,,,m,0.000845,,,,,,flowers/images/297.jpg,flowers/images/205.jpg,100,Chace Paulson,001,2020-11-21_15h35.57.473,test1,2020.2.5,MacIntel,60,,,0,99,99,99,1
,,,,m,1.869725,,,,,,flowers/images/25.jpg,flowers/images/54.jpg,101,Chace Paulson,001,2020-11-21_15h35.57.473,test1,2020.2.5,MacIntel,60,,,0,100,100,100,1
,,,,m,0.83971,,,,,,flowers/images/67.jpg,flowers/images/331.jpg,102,Chace Paulson,001,2020-11-21_15h35.57.473,test1,2020.2.5,MacIntel,60,,,0,101,101,101,1
,,,,m,0.73022,,,,,,flowers/images/366.jpg,flowers/images/372.jpg,103,Chace Paulson,001,2020-11-21_15h35.57.473,test1,2020.2.5,MacIntel,60,,,0,102,102,102,1
,,,,m,0.646865,,,,,,flowers/images/4.jpg,flowers/images/220.jpg,104,Chace Paulson,001,2020-11-21_15h35.57.473,test1,2020.2.5,MacIntel,60,,,0,103,103,103,1
,,,,z,0.83901,,,,,,flowers/images/90.jpg,flowers/images/148.jpg,105,Chace Paulson,001,2020-11-21_15h35.57.473,test1,2020.2.5,MacIntel,60,,,0,104,104,104,1
,,,,m,1.953995,,,,,,flowers/images/198.jpg,flowers/images/380.jpg,106,Chace Paulson,001,2020-11-21_15h35.57.473,test1,2020.2.5,MacIntel,60,,,0,105,105,105,1
,,,,m,1.149425,,,,,,flowers/images/375.jpg,flowers/images/362.jpg,107,Chace Paulson,001,2020-11-21_15h35.57.473,test1,2020.2.5,MacIntel,60,,,0,106,106,106,1
,,,,m,1.601635,,,,,,flowers/images/372.jpg,flowers/images/98.jpg,108,Chace Paulson,001,2020-11-21_15h35.57.473,test1,2020.2.5,MacIntel,60,,,0,107,107,107,1
,,,,m,0.63832,,,,,,flowers/images/364.jpg,flowers/images/12.jpg,109,Chace Paulson,001,2020-11-21_15h35.57.473,test1,2020.2.5,MacIntel,60,,,0,108,108,108,1
,,,,m,0.78016,,,,,,flowers/images/176.jpg,flowers/images/316.jpg,110,Chace Paulson,001,2020-11-21_15h35.57.473,test1,2020.2.5,MacIntel,60,,,0,109,109,109,1
,,,,z,0.78465,,,,,,flowers/images/48.jpg,flowers/images/75.jpg,111,Chace Paulson,001,2020-11-21_15h35.57.473,test1,2020.2.5,MacIntel,60,,,0,110,110,110,1
,,,,m,0.884755,,,,,,flowers/images/188.jpg,flowers/images/8.jpg,112,Chace Paulson,001,2020-11-21_15h35.57.473,test1,2020.2.5,MacIntel,60,,,0,111,111,111,1
,,,,m,0.653415,,,,,,flowers/images/288.jpg,flowers/images/251.jpg,113,Chace Paulson,001,2020-11-21_15h35.57.473,test1,2020.2.5,MacIntel,60,,,0,112,112,112,1
,,,,m,0.749275,,,,,,flowers/images/349.jpg,flowers/images/282.jpg,114,Chace Paulson,001,2020-11-21_15h35.57.473,test1,2020.2.5,MacIntel,60,,,0,113,113,113,1
,,,,z,1.60152,,,,,,flowers/images/135.jpg,flowers/images/172.jpg,115,Chace Paulson,001,2020-11-21_15h35.57.473,test1,2020.2.5,MacIntel,60,,,0,114,114,114,1
,,,,z,1.80047,,,,,,flowers/images/283.jpg,flowers/images/139.jpg,116,Chace Paulson,001,2020-11-21_15h35.57.473,test1,2020.2.5,MacIntel,60,,,0,115,115,115,1
,,,,z,0.881665,,,,,,flowers/images/301.jpg,flowers/images/102.jpg,117,Chace Paulson,001,2020-11-21_15h35.57.473,test1,2020.2.5,MacIntel,60,,,0,116,116,116,1
,,,,z,1.03631,,,,,,flowers/images/164.jpg,flowers/images/392.jpg,118,Chace Paulson,001,2020-11-21_15h35.57.473,test1,2020.2.5,MacIntel,60,,,0,117,117,117,1
,,,,z,2.03508,,,,,,flowers/images/385.jpg,flowers/images/244.jpg,119,Chace Paulson,001,2020-11-21_15h35.57.473,test1,2020.2.5,MacIntel,60,,,0,118,118,118,1
,,,,z,1.34364,,,,,,flowers/images/137.jpg,flowers/images/104.jpg,120,Chace Paulson,001,2020-11-21_15h35.57.473,test1,2020.2.5,MacIntel,60,,,0,119,119,119,1
,,,,m,0.77239,,,,,,flowers/images/23.jpg,flowers/images/157.jpg,121,Chace Paulson,001,2020-11-21_15h35.57.473,test1,2020.2.5,MacIntel,60,,,0,120,120,120,1
,,,,m,0.86093,,,,,,flowers/images/310.jpg,flowers/images/238.jpg,122,Chace Paulson,001,2020-11-21_15h35.57.473,test1,2020.2.5,MacIntel,60,,,0,121,121,121,1
,,,,m,2.232485,,,,,,flowers/images/215.jpg,flowers/images/222.jpg,123,Chace Paulson,001,2020-11-21_15h35.57.473,test1,2020.2.5,MacIntel,60,,,0,122,122,122,1
,,,,m,1.45992,,,,,,flowers/images/244.jpg,flowers/images/274.jpg,124,Chace Paulson,001,2020-11-21_15h35.57.473,test1,2020.2.5,MacIntel,60,,,0,123,123,123,1
,,,,m,1.12111,,,,,,flowers/images/313.jpg,flowers/images/329.jpg,125,Chace Paulson,001,2020-11-21_15h35.57.473,test1,2020.2.5,MacIntel,60,,,0,124,124,124,1
,,,,m,1.217285,,,,,,flowers/images/207.jpg,flowers/images/188.jpg,126,Chace Paulson,001,2020-11-21_15h35.57.473,test1,2020.2.5,MacIntel,60,,,0,125,125,125,1
,,,,m,0.80139,,,,,,flowers/images/265.jpg,flowers/images/351.jpg,127,Chace Paulson,001,2020-11-21_15h35.57.473,test1,2020.2.5,MacIntel,60,,,0,126,126,126,1
,,,,m,0.829185,,,,,,flowers/images/248.jpg,flowers/images/239.jpg,128,Chace Paulson,001,2020-11-21_15h35.57.473,test1,2020.2.5,MacIntel,60,,,0,127,127,127,1
,,,,m,1.168455,,,,,,flowers/images/204.jpg,flowers/images/225.jpg,129,Chace Paulson,001,2020-11-21_15h35.57.473,test1,2020.2.5,MacIntel,60,,,0,128,128,128,1
,,,,z,1.05413,,,,,,flowers/images/13.jpg,flowers/images/119.jpg,130,Chace Paulson,001,2020-11-21_15h35.57.473,test1,2020.2.5,MacIntel,60,,,0,129,129,129,1
,,,,z,1.56389,,,,,,flowers/images/370.jpg,flowers/images/39.jpg,131,Chace Paulson,001,2020-11-21_15h35.57.473,test1,2020.2.5,MacIntel,60,,,0,130,130,130,1
,,,,m,0.873065,,,,,,flowers/images/397.jpg,flowers/images/69.jpg,132,Chace Paulson,001,2020-11-21_15h35.57.473,test1,2020.2.5,MacIntel,60,,,0,131,131,131,1
,,,,m,1.20227,,,,,,flowers/images/393.jpg,flowers/images/399.jpg,133,Chace Paulson,001,2020-11-21_15h35.57.473,test1,2020.2.5,MacIntel,60,,,0,132,132,132,1
,,,,m,1.13591,,,,,,flowers/images/363.jpg,flowers/images/74.jpg,134,Chace Paulson,001,2020-11-21_15h35.57.473,test1,2020.2.5,MacIntel,60,,,0,133,133,133,1
,,,,z,1.118845,,,,,,flowers/images/254.jpg,flowers/images/174.jpg,135,Chace Paulson,001,2020-11-21_15h35.57.473,test1,2020.2.5,MacIntel,60,,,0,134,134,134,1
,,,,m,1.04669,,,,,,flowers/images/139.jpg,flowers/images/70.jpg,136,Chace Paulson,001,2020-11-21_15h35.57.473,test1,2020.2.5,MacIntel,60,,,0,135,135,135,1
,,,,m,1.24407,,,,,,flowers/images/95.jpg,flowers/images/315.jpg,137,Chace Paulson,001,2020-11-21_15h35.57.473,test1,2020.2.5,MacIntel,60,,,0,136,136,136,1
,,,,z,0.86721,,,,,,flowers/images/294.jpg,flowers/images/334.jpg,138,Chace Paulson,001,2020-11-21_15h35.57.473,test1,2020.2.5,MacIntel,60,,,0,137,137,137,1
,,,,z,1.46659,,,,,,flowers/images/174.jpg,flowers/images/171.jpg,139,Chace Paulson,001,2020-11-21_15h35.57.473,test1,2020.2.5,MacIntel,60,,,0,138,138,138,1
,,,,z,1.931395,,,,,,flowers/images/57.jpg,flowers/images/326.jpg,140,Chace Paulson,001,2020-11-21_15h35.57.473,test1,2020.2.5,MacIntel,60,,,0,139,139,139,1
,,,,m,0.95231,,,,,,flowers/images/246.jpg,flowers/images/82.jpg,141,Chace Paulson,001,2020-11-21_15h35.57.473,test1,2020.2.5,MacIntel,60,,,0,140,140,140,1
,,,,m,1.918965,,,,,,flowers/images/16.jpg,flowers/images/45.jpg,142,Chace Paulson,001,2020-11-21_15h35.57.473,test1,2020.2.5,MacIntel,60,,,0,141,141,141,1
,,,,z,0.975445,,,,,,flowers/images/380.jpg,flowers/images/150.jpg,143,Chace Paulson,001,2020-11-21_15h35.57.473,test1,2020.2.5,MacIntel,60,,,0,142,142,142,1
,,,,m,1.133215,,,,,,flowers/images/109.jpg,flowers/images/350.jpg,144,Chace Paulson,001,2020-11-21_15h35.57.473,test1,2020.2.5,MacIntel,60,,,0,143,143,143,1
,,,,m,0.783395,,,,,,flowers/images/223.jpg,flowers/images/366.jpg,145,Chace Paulson,001,2020-11-21_15h35.57.473,test1,2020.2.5,MacIntel,60,,,0,144,144,144,1
,,,,z,1.365575,,,,,,flowers/images/60.jpg,flowers/images/194.jpg,146,Chace Paulson,001,2020-11-21_15h35.57.473,test1,2020.2.5,MacIntel,60,,,0,145,145,145,1
,,,,z,0.66647,,,,,,flowers/images/268.jpg,flowers/images/332.jpg,147,Chace Paulson,001,2020-11-21_15h35.57.473,test1,2020.2.5,MacIntel,60,,,0,146,146,146,1
,,,,z,1.378455,,,,,,flowers/images/388.jpg,flowers/images/319.jpg,148,Chace Paulson,001,2020-11-21_15h35.57.473,test1,2020.2.5,MacIntel,60,,,0,147,147,147,1
,,,,m,1.08781,,,,,,flowers/images/356.jpg,flowers/images/337.jpg,149,Chace Paulson,001,2020-11-21_15h35.57.473,test1,2020.2.5,MacIntel,60,,,0,148,148,148,1
,,,,z,1.386665,,,,,,flowers/images/384.jpg,flowers/images/344.jpg,150,Chace Paulson,001,2020-11-21_15h35.57.473,test1,2020.2.5,MacIntel,60,,,0,149,149,149,1
,,,,m,0.85159,,,,,,flowers/images/333.jpg,flowers/images/346.jpg,151,Chace Paulson,001,2020-11-21_15h35.57.473,test1,2020.2.5,MacIntel,60,,,0,150,150,150,1
,,,,m,1.116865,,,,,,flowers/images/24.jpg,flowers/images/116.jpg,152,Chace Paulson,001,2020-11-21_15h35.57.473,test1,2020.2.5,MacIntel,60,,,0,151,151,151,1
,,,,m,1.072825,,,,,,flowers/images/220.jpg,flowers/images/235.jpg,153,Chace Paulson,001,2020-11-21_15h35.57.473,test1,2020.2.5,MacIntel,60,,,0,152,152,152,1
,,,,m,1.03552,,,,,,flowers/images/269.jpg,flowers/images/198.jpg,154,Chace Paulson,001,2020-11-21_15h35.57.473,test1,2020.2.5,MacIntel,60,,,0,153,153,153,1
,,,,z,0.96259,,,,,,flowers/images/107.jpg,flowers/images/1.jpg,155,Chace Paulson,001,2020-11-21_15h35.57.473,test1,2020.2.5,MacIntel,60,,,0,154,154,154,1
,,,,m,0.94081,,,,,,flowers/images/314.jpg,flowers/images/147.jpg,156,Chace Paulson,001,2020-11-21_15h35.57.473,test1,2020.2.5,MacIntel,60,,,0,155,155,155,1
,,,,z,1.00726,,,,,,flowers/images/117.jpg,flowers/images/258.jpg,157,Chace Paulson,001,2020-11-21_15h35.57.473,test1,2020.2.5,MacIntel,60,,,0,156,156,156,1
,,,,z,0.78298,,,,,,flowers/images/41.jpg,flowers/images/214.jpg,158,Chace Paulson,001,2020-11-21_15h35.57.473,test1,2020.2.5,MacIntel,60,,,0,157,157,157,1
,,,,m,0.95559,,,,,,flowers/images/306.jpg,flowers/images/118.jpg,159,Chace Paulson,001,2020-11-21_15h35.57.473,test1,2020.2.5,MacIntel,60,,,0,158,158,158,1
,,,,m,0.873805,,,,,,flowers/images/299.jpg,flowers/images/40.jpg,160,Chace Paulson,001,2020-11-21_15h35.57.473,test1,2020.2.5,MacIntel,60,,,0,159,159,159,1
,,,,m,0.933905,,,,,,flowers/images/50.jpg,flowers/images/291.jpg,161,Chace Paulson,001,2020-11-21_15h35.57.473,test1,2020.2.5,MacIntel,60,,,0,160,160,160,1
,,,,z,1.08246,,,,,,flowers/images/238.jpg,flowers/images/129.jpg,162,Chace Paulson,001,2020-11-21_15h35.57.473,test1,2020.2.5,MacIntel,60,,,0,161,161,161,1
,,,,z,2.54646,,,,,,flowers/images/30.jpg,flowers/images/136.jpg,163,Chace Paulson,001,2020-11-21_15h35.57.473,test1,2020.2.5,MacIntel,60,,,0,162,162,162,1
,,,,z,0.651815,,,,,,flowers/images/211.jpg,flowers/images/306.jpg,164,Chace Paulson,001,2020-11-21_15h35.57.473,test1,2020.2.5,MacIntel,60,,,0,163,163,163,1
,,,,m,1.02061,,,,,,flowers/images/227.jpg,flowers/images/57.jpg,165,Chace Paulson,001,2020-11-21_15h35.57.473,test1,2020.2.5,MacIntel,60,,,0,164,164,164,1
,,,,m,0.632,,,,,,flowers/images/242.jpg,flowers/images/61.jpg,166,Chace Paulson,001,2020-11-21_15h35.57.473,test1,2020.2.5,MacIntel,60,,,0,165,165,165,1
,,,,m,0.802385,,,,,,flowers/images/387.jpg,flowers/images/263.jpg,167,Chace Paulson,001,2020-11-21_15h35.57.473,test1,2020.2.5,MacIntel,60,,,0,166,166,166,1
,,,,m,1.1957,,,,,,flowers/images/193.jpg,flowers/images/367.jpg,168,Chace Paulson,001,2020-11-21_15h35.57.473,test1,2020.2.5,MacIntel,60,,,0,167,167,167,1
,,,,m,0.86636,,,,,,flowers/images/231.jpg,flowers/images/18.jpg,169,Chace Paulson,001,2020-11-21_15h35.57.473,test1,2020.2.5,MacIntel,60,,,0,168,168,168,1
,,,,z,0.83422,,,,,,flowers/images/154.jpg,flowers/images/32.jpg,170,Chace Paulson,001,2020-11-21_15h35.57.473,test1,2020.2.5,MacIntel,60,,,0,169,169,169,1
,,,,z,0.882735,,,,,,flowers/images/79.jpg,flowers/images/301.jpg,171,Chace Paulson,001,2020-11-21_15h35.57.473,test1,2020.2.5,MacIntel,60,,,0,170,170,170,1
,,,,m,1.44363,,,,,,flowers/images/263.jpg,flowers/images/210.jpg,172,Chace Paulson,001,2020-11-21_15h35.57.473,test1,2020.2.5,MacIntel,60,,,0,171,171,171,1
,,,,m,0.60476,,,,,,flowers/images/383.jpg,flowers/images/354.jpg,173,Chace Paulson,001,2020-11-21_15h35.57.473,test1,2020.2.5,MacIntel,60,,,0,172,172,172,1
,,,,m,0.68118,,,,,,flowers/images/290.jpg,flowers/images/212.jpg,174,Chace Paulson,001,2020-11-21_15h35.57.473,test1,2020.2.5,MacIntel,60,,,0,173,173,173,1
,,,,m,0.79896,,,,,,flowers/images/206.jpg,flowers/images/397.jpg,175,Chace Paulson,001,2020-11-21_15h35.57.473,test1,2020.2.5,MacIntel,60,,,0,174,174,174,1
,,,,z,0.95184,,,,,,flowers/images/317.jpg,flowers/images/297.jpg,176,Chace Paulson,001,2020-11-21_15h35.57.473,test1,2020.2.5,MacIntel,60,,,0,175,175,175,1
,,,,m,1.006655,,,,,,flowers/images/329.jpg,flowers/images/255.jpg,177,Chace Paulson,001,2020-11-21_15h35.57.473,test1,2020.2.5,MacIntel,60,,,0,176,176,176,1
,,,,m,0.93504,,,,,,flowers/images/225.jpg,flowers/images/91.jpg,178,Chace Paulson,001,2020-11-21_15h35.57.473,test1,2020.2.5,MacIntel,60,,,0,177,177,177,1
,,,,m,1.48408,,,,,,flowers/images/11.jpg,flowers/images/256.jpg,179,Chace Paulson,001,2020-11-21_15h35.57.473,test1,2020.2.5,MacIntel,60,,,0,178,178,178,1
,,,,z,1.16484,,,,,,flowers/images/234.jpg,flowers/images/64.jpg,180,Chace Paulson,001,2020-11-21_15h35.57.473,test1,2020.2.5,MacIntel,60,,,0,179,179,179,1
,,,,m,0.789605,,,,,,flowers/images/342.jpg,flowers/images/26.jpg,181,Chace Paulson,001,2020-11-21_15h35.57.473,test1,2020.2.5,MacIntel,60,,,0,180,180,180,1
,,,,m,0.838925,,,,,,flowers/images/391.jpg,flowers/images/286.jpg,182,Chace Paulson,001,2020-11-21_15h35.57.473,test1,2020.2.5,MacIntel,60,,,0,181,181,181,1
,,,,m,0.952415,,,,,,flowers/images/221.jpg,flowers/images/268.jpg,183,Chace Paulson,001,2020-11-21_15h35.57.473,test1,2020.2.5,MacIntel,60,,,0,182,182,182,1
,,,,m,0.79052,,,,,,flowers/images/210.jpg,flowers/images/84.jpg,184,Chace Paulson,001,2020-11-21_15h35.57.473,test1,2020.2.5,MacIntel,60,,,0,183,183,183,1
,,,,m,1.063585,,,,,,flowers/images/138.jpg,flowers/images/77.jpg,185,Chace Paulson,001,2020-11-21_15h35.57.473,test1,2020.2.5,MacIntel,60,,,0,184,184,184,1
,,,,m,0.967815,,,,,,flowers/images/315.jpg,flowers/images/269.jpg,186,Chace Paulson,001,2020-11-21_15h35.57.473,test1,2020.2.5,MacIntel,60,,,0,185,185,185,1
,,,,z,0.903635,,,,,,flowers/images/308.jpg,flowers/images/265.jpg,187,Chace Paulson,001,2020-11-21_15h35.57.473,test1,2020.2.5,MacIntel,60,,,0,186,186,186,1
,,,,z,1.215425,,,,,,flowers/images/88.jpg,flowers/images/56.jpg,188,Chace Paulson,001,2020-11-21_15h35.57.473,test1,2020.2.5,MacIntel,60,,,0,187,187,187,1
,,,,m,1.283435,,,,,,flowers/images/102.jpg,flowers/images/126.jpg,189,Chace Paulson,001,2020-11-21_15h35.57.473,test1,2020.2.5,MacIntel,60,,,0,188,188,188,1
,,,,z,1.28431,,,,,,flowers/images/132.jpg,flowers/images/389.jpg,190,Chace Paulson,001,2020-11-21_15h35.57.473,test1,2020.2.5,MacIntel,60,,,0,189,189,189,1
,,,,m,0.702045,,,,,,flowers/images/186.jpg,flowers/images/144.jpg,191,Chace Paulson,001,2020-11-21_15h35.57.473,test1,2020.2.5,MacIntel,60,,,0,190,190,190,1
,,,,m,0.81167,,,,,,flowers/images/284.jpg,flowers/images/92.jpg,192,Chace Paulson,001,2020-11-21_15h35.57.473,test1,2020.2.5,MacIntel,60,,,0,191,191,191,1
,,,,z,1.10516,,,,,,flowers/images/396.jpg,flowers/images/24.jpg,193,Chace Paulson,001,2020-11-21_15h35.57.473,test1,2020.2.5,MacIntel,60,,,0,192,192,192,1
,,,,z,1.27421,,,,,,flowers/images/374.jpg,flowers/images/287.jpg,194,Chace Paulson,001,2020-11-21_15h35.57.473,test1,2020.2.5,MacIntel,60,,,0,193,193,193,1
,,,,z,0.83282,,,,,,flowers/images/140.jpg,flowers/images/267.jpg,195,Chace Paulson,001,2020-11-21_15h35.57.473,test1,2020.2.5,MacIntel,60,,,0,194,194,194,1
,,,,m,0.85108,,,,,,flowers/images/267.jpg,flowers/images/343.jpg,196,Chace Paulson,001,2020-11-21_15h35.57.473,test1,2020.2.5,MacIntel,60,,,0,195,195,195,1
,,,,m,0.83574,,,,,,flowers/images/286.jpg,flowers/images/35.jpg,197,Chace Paulson,001,2020-11-21_15h35.57.473,test1,2020.2.5,MacIntel,60,,,0,196,196,196,1
,,,,m,0.77826,,,,,,flowers/images/143.jpg,flowers/images/391.jpg,198,Chace Paulson,001,2020-11-21_15h35.57.473,test1,2020.2.5,MacIntel,60,,,0,197,197,197,1
,,,,z,0.964575,,,,,,flowers/images/196.jpg,flowers/images/155.jpg,199,Chace Paulson,001,2020-11-21_15h35.57.473,test1,2020.2.5,MacIntel,60,,,0,198,198,198,1
,,,,z,0.69568,,,,,,flowers/images/281.jpg,flowers/images/394.jpg,200,Chace Paulson,001,2020-11-21_15h35.57.473,test1,2020.2.5,MacIntel,60,,,0,199,199,199,1
