key_resp.keys,key_resp.rt,key_resp_3.keys,key_resp_3.rt,key_resp_2.keys,key_resp_2.rt,trials.thisRepN,trials.thisTrialN,trials.thisN,trials.thisIndex,trials.ran,image_left,image_right,trial_num,participant,session,date,expName,psychopyVersion,OS,frameRate
space,14.16752,space,12.813185,z,10.00183,0,0,0,0,1,flowers/images/125.jpg,flowers/images/165.jpg,1,Dasha Pavlovska,001,2020-11-19_14h42.22.576,test1,2020.2.5,Win32,60
,,,,m,6.507625,0,1,1,1,1,flowers/images/168.jpg,flowers/images/195.jpg,2,Dasha Pavlovska,001,2020-11-19_14h42.22.576,test1,2020.2.5,Win32,60
,,,,m,1.858195,0,2,2,2,1,flowers/images/114.jpg,flowers/images/131.jpg,3,Dasha Pavlovska,001,2020-11-19_14h42.22.576,test1,2020.2.5,Win32,60
,,,,m,3.214665,0,3,3,3,1,flowers/images/110.jpg,flowers/images/241.jpg,4,Dasha Pavlovska,001,2020-11-19_14h42.22.576,test1,2020.2.5,Win32,60
,,,,z,2.170295,0,4,4,4,1,flowers/images/157.jpg,flowers/images/170.jpg,5,Dasha Pavlovska,001,2020-11-19_14h42.22.576,test1,2020.2.5,Win32,60
,,,,m,1.79945,0,5,5,5,1,flowers/images/291.jpg,flowers/images/302.jpg,6,Dasha Pavlovska,001,2020-11-19_14h42.22.576,test1,2020.2.5,Win32,60
,,,,z,3.423325,0,6,6,6,1,flowers/images/335.jpg,flowers/images/272.jpg,7,Dasha Pavlovska,001,2020-11-19_14h42.22.576,test1,2020.2.5,Win32,60
,,,,m,1.43484,0,7,7,7,1,flowers/images/122.jpg,flowers/images/72.jpg,8,Dasha Pavlovska,001,2020-11-19_14h42.22.576,test1,2020.2.5,Win32,60
,,,,z,4.983265,0,8,8,8,1,flowers/images/240.jpg,flowers/images/67.jpg,9,Dasha Pavlovska,001,2020-11-19_14h42.22.576,test1,2020.2.5,Win32,60
,,,,m,3.191395,0,9,9,9,1,flowers/images/324.jpg,flowers/images/180.jpg,10,Dasha Pavlovska,001,2020-11-19_14h42.22.576,test1,2020.2.5,Win32,60
,,,,m,1.996065,0,10,10,10,1,flowers/images/148.jpg,flowers/images/275.jpg,11,Dasha Pavlovska,001,2020-11-19_14h42.22.576,test1,2020.2.5,Win32,60
,,,,z,1.505855,0,11,11,11,1,flowers/images/61.jpg,flowers/images/2.jpg,12,Dasha Pavlovska,001,2020-11-19_14h42.22.576,test1,2020.2.5,Win32,60
,,,,z,3.35283,0,12,12,12,1,flowers/images/20.jpg,flowers/images/378.jpg,13,Dasha Pavlovska,001,2020-11-19_14h42.22.576,test1,2020.2.5,Win32,60
,,,,z,1.9136,0,13,13,13,1,flowers/images/181.jpg,flowers/images/363.jpg,14,Dasha Pavlovska,001,2020-11-19_14h42.22.576,test1,2020.2.5,Win32,60
,,,,m,3.592645,0,14,14,14,1,flowers/images/87.jpg,flowers/images/187.jpg,15,Dasha Pavlovska,001,2020-11-19_14h42.22.576,test1,2020.2.5,Win32,60
,,,,m,1.06168,0,15,15,15,1,flowers/images/150.jpg,flowers/images/281.jpg,16,Dasha Pavlovska,001,2020-11-19_14h42.22.576,test1,2020.2.5,Win32,60
,,,,m,1.81345,0,16,16,16,1,flowers/images/112.jpg,flowers/images/176.jpg,17,Dasha Pavlovska,001,2020-11-19_14h42.22.576,test1,2020.2.5,Win32,60
,,,,z,1.148235,0,17,17,17,1,flowers/images/236.jpg,flowers/images/243.jpg,18,Dasha Pavlovska,001,2020-11-19_14h42.22.576,test1,2020.2.5,Win32,60
,,,,m,1.97393,0,18,18,18,1,flowers/images/133.jpg,flowers/images/247.jpg,19,Dasha Pavlovska,001,2020-11-19_14h42.22.576,test1,2020.2.5,Win32,60
,,,,m,1.216255,0,19,19,19,1,flowers/images/136.jpg,flowers/images/164.jpg,20,Dasha Pavlovska,001,2020-11-19_14h42.22.576,test1,2020.2.5,Win32,60
,,,,m,1.744075,0,20,20,20,1,flowers/images/185.jpg,flowers/images/211.jpg,21,Dasha Pavlovska,001,2020-11-19_14h42.22.576,test1,2020.2.5,Win32,60
,,,,m,1.27055,0,21,21,21,1,flowers/images/118.jpg,flowers/images/371.jpg,22,Dasha Pavlovska,001,2020-11-19_14h42.22.576,test1,2020.2.5,Win32,60
,,,,z,5.220655,0,22,22,22,1,flowers/images/177.jpg,flowers/images/5.jpg,23,Dasha Pavlovska,001,2020-11-19_14h42.22.576,test1,2020.2.5,Win32,60
,,,,z,0.82364,0,23,23,23,1,flowers/images/91.jpg,flowers/images/215.jpg,24,Dasha Pavlovska,001,2020-11-19_14h42.22.576,test1,2020.2.5,Win32,60
,,,,z,1.94332,0,24,24,24,1,flowers/images/277.jpg,flowers/images/11.jpg,25,Dasha Pavlovska,001,2020-11-19_14h42.22.576,test1,2020.2.5,Win32,60
,,,,m,3.08801,0,25,25,25,1,flowers/images/197.jpg,flowers/images/25.jpg,26,Dasha Pavlovska,001,2020-11-19_14h42.22.576,test1,2020.2.5,Win32,60
,,,,z,1.657325,0,26,26,26,1,flowers/images/131.jpg,flowers/images/63.jpg,27,Dasha Pavlovska,001,2020-11-19_14h42.22.576,test1,2020.2.5,Win32,60
,,,,m,3.314005,0,27,27,27,1,flowers/images/106.jpg,flowers/images/221.jpg,28,Dasha Pavlovska,001,2020-11-19_14h42.22.576,test1,2020.2.5,Win32,60
,,,,m,1.836785,0,28,28,28,1,flowers/images/295.jpg,flowers/images/307.jpg,29,Dasha Pavlovska,001,2020-11-19_14h42.22.576,test1,2020.2.5,Win32,60
,,,,z,2.39393,0,29,29,29,1,flowers/images/368.jpg,flowers/images/384.jpg,30,Dasha Pavlovska,001,2020-11-19_14h42.22.576,test1,2020.2.5,Win32,60
,,,,m,1.004635,0,30,30,30,1,flowers/images/96.jpg,flowers/images/140.jpg,31,Dasha Pavlovska,001,2020-11-19_14h42.22.576,test1,2020.2.5,Win32,60
,,,,m,2.98384,0,31,31,31,1,flowers/images/272.jpg,flowers/images/59.jpg,32,Dasha Pavlovska,001,2020-11-19_14h42.22.576,test1,2020.2.5,Win32,60
,,,,z,1.366205,0,32,32,32,1,flowers/images/389.jpg,flowers/images/110.jpg,33,Dasha Pavlovska,001,2020-11-19_14h42.22.576,test1,2020.2.5,Win32,60
,,,,m,1.216605,0,33,33,33,1,flowers/images/237.jpg,flowers/images/387.jpg,34,Dasha Pavlovska,001,2020-11-19_14h42.22.576,test1,2020.2.5,Win32,60
,,,,z,1.13809,0,34,34,34,1,flowers/images/35.jpg,flowers/images/142.jpg,35,Dasha Pavlovska,001,2020-11-19_14h42.22.576,test1,2020.2.5,Win32,60
,,,,m,1.82284,0,35,35,35,1,flowers/images/49.jpg,flowers/images/200.jpg,36,Dasha Pavlovska,001,2020-11-19_14h42.22.576,test1,2020.2.5,Win32,60
,,,,m,1.013235,0,36,36,36,1,flowers/images/142.jpg,flowers/images/328.jpg,37,Dasha Pavlovska,001,2020-11-19_14h42.22.576,test1,2020.2.5,Win32,60
,,,,z,6.14905,0,37,37,37,1,flowers/images/339.jpg,flowers/images/264.jpg,38,Dasha Pavlovska,001,2020-11-19_14h42.22.576,test1,2020.2.5,Win32,60
,,,,m,1.06496,0,38,38,38,1,flowers/images/394.jpg,flowers/images/266.jpg,39,Dasha Pavlovska,001,2020-11-19_14h42.22.576,test1,2020.2.5,Win32,60
,,,,m,1.33607,0,39,39,39,1,flowers/images/89.jpg,flowers/images/298.jpg,40,Dasha Pavlovska,001,2020-11-19_14h42.22.576,test1,2020.2.5,Win32,60
,,,,m,1.873405,0,40,40,40,1,flowers/images/325.jpg,flowers/images/47.jpg,41,Dasha Pavlovska,001,2020-11-19_14h42.22.576,test1,2020.2.5,Win32,60
,,,,m,1.343285,0,41,41,41,1,flowers/images/40.jpg,flowers/images/162.jpg,42,Dasha Pavlovska,001,2020-11-19_14h42.22.576,test1,2020.2.5,Win32,60
,,,,z,0.960045,0,42,42,42,1,flowers/images/266.jpg,flowers/images/181.jpg,43,Dasha Pavlovska,001,2020-11-19_14h42.22.576,test1,2020.2.5,Win32,60
,,,,m,1.475835,0,43,43,43,1,flowers/images/100.jpg,flowers/images/396.jpg,44,Dasha Pavlovska,001,2020-11-19_14h42.22.576,test1,2020.2.5,Win32,60
,,,,m,1.702325,0,44,44,44,1,flowers/images/144.jpg,flowers/images/231.jpg,45,Dasha Pavlovska,001,2020-11-19_14h42.22.576,test1,2020.2.5,Win32,60
,,,,z,1.140075,0,45,45,45,1,flowers/images/289.jpg,flowers/images/202.jpg,46,Dasha Pavlovska,001,2020-11-19_14h42.22.576,test1,2020.2.5,Win32,60
,,,,m,3.12947,0,46,46,46,1,flowers/images/178.jpg,flowers/images/86.jpg,47,Dasha Pavlovska,001,2020-11-19_14h42.22.576,test1,2020.2.5,Win32,60
,,,,z,1.35371,0,47,47,47,1,flowers/images/360.jpg,flowers/images/393.jpg,48,Dasha Pavlovska,001,2020-11-19_14h42.22.576,test1,2020.2.5,Win32,60
,,,,m,1.063215,0,48,48,48,1,flowers/images/108.jpg,flowers/images/288.jpg,49,Dasha Pavlovska,001,2020-11-19_14h42.22.576,test1,2020.2.5,Win32,60
,,,,m,1.029885,0,49,49,49,1,flowers/images/165.jpg,flowers/images/154.jpg,50,Dasha Pavlovska,001,2020-11-19_14h42.22.576,test1,2020.2.5,Win32,60
,,,,m,2.171345,0,50,50,50,1,flowers/images/27.jpg,flowers/images/121.jpg,51,Dasha Pavlovska,001,2020-11-19_14h42.22.576,test1,2020.2.5,Win32,60
,,,,m,1.596855,0,51,51,51,1,flowers/images/302.jpg,flowers/images/203.jpg,52,Dasha Pavlovska,001,2020-11-19_14h42.22.576,test1,2020.2.5,Win32,60
,,,,m,6.60036,0,52,52,52,1,flowers/images/255.jpg,flowers/images/42.jpg,53,Dasha Pavlovska,001,2020-11-19_14h42.22.576,test1,2020.2.5,Win32,60
,,,,z,1.595915,0,53,53,53,1,flowers/images/31.jpg,flowers/images/289.jpg,54,Dasha Pavlovska,001,2020-11-19_14h42.22.576,test1,2020.2.5,Win32,60
,,,,m,3.07904,0,54,54,54,1,flowers/images/66.jpg,flowers/images/246.jpg,55,Dasha Pavlovska,001,2020-11-19_14h42.22.576,test1,2020.2.5,Win32,60
,,,,z,0.95537,0,55,55,55,1,flowers/images/355.jpg,flowers/images/115.jpg,56,Dasha Pavlovska,001,2020-11-19_14h42.22.576,test1,2020.2.5,Win32,60
,,,,m,2.078785,0,56,56,56,1,flowers/images/241.jpg,flowers/images/345.jpg,57,Dasha Pavlovska,001,2020-11-19_14h42.22.576,test1,2020.2.5,Win32,60
,,,,m,2.2884,0,57,57,57,1,flowers/images/296.jpg,flowers/images/37.jpg,58,Dasha Pavlovska,001,2020-11-19_14h42.22.576,test1,2020.2.5,Win32,60
,,,,m,1.29651,0,58,58,58,1,flowers/images/235.jpg,flowers/images/373.jpg,59,Dasha Pavlovska,001,2020-11-19_14h42.22.576,test1,2020.2.5,Win32,60
,,,,z,1.73382,0,59,59,59,1,flowers/images/173.jpg,flowers/images/93.jpg,60,Dasha Pavlovska,001,2020-11-19_14h42.22.576,test1,2020.2.5,Win32,60
,,,,m,1.69874,0,60,60,60,1,flowers/images/331.jpg,flowers/images/88.jpg,61,Dasha Pavlovska,001,2020-11-19_14h42.22.576,test1,2020.2.5,Win32,60
,,,,m,3.772935,0,61,61,61,1,flowers/images/134.jpg,flowers/images/127.jpg,62,Dasha Pavlovska,001,2020-11-19_14h42.22.576,test1,2020.2.5,Win32,60
,,,,z,1.55918,0,62,62,62,1,flowers/images/285.jpg,flowers/images/201.jpg,63,Dasha Pavlovska,001,2020-11-19_14h42.22.576,test1,2020.2.5,Win32,60
,,,,z,1.098835,0,63,63,63,1,flowers/images/151.jpg,flowers/images/52.jpg,64,Dasha Pavlovska,001,2020-11-19_14h42.22.576,test1,2020.2.5,Win32,60
,,,,z,1.6136,0,64,64,64,1,flowers/images/208.jpg,flowers/images/186.jpg,65,Dasha Pavlovska,001,2020-11-19_14h42.22.576,test1,2020.2.5,Win32,60
,,,,z,2.30327,0,65,65,65,1,flowers/images/80.jpg,flowers/images/124.jpg,66,Dasha Pavlovska,001,2020-11-19_14h42.22.576,test1,2020.2.5,Win32,60
,,,,z,1.094855,0,66,66,66,1,flowers/images/303.jpg,flowers/images/347.jpg,67,Dasha Pavlovska,001,2020-11-19_14h42.22.576,test1,2020.2.5,Win32,60
,,,,z,4.49303,0,67,67,67,1,flowers/images/6.jpg,flowers/images/262.jpg,68,Dasha Pavlovska,001,2020-11-19_14h42.22.576,test1,2020.2.5,Win32,60
,,,,z,1.12848,0,68,68,68,1,flowers/images/85.jpg,flowers/images/20.jpg,69,Dasha Pavlovska,001,2020-11-19_14h42.22.576,test1,2020.2.5,Win32,60
,,,,z,1.514245,0,69,69,69,1,flowers/images/392.jpg,flowers/images/15.jpg,70,Dasha Pavlovska,001,2020-11-19_14h42.22.576,test1,2020.2.5,Win32,60
,,,,z,3.436475,0,70,70,70,1,flowers/images/341.jpg,flowers/images/357.jpg,71,Dasha Pavlovska,001,2020-11-19_14h42.22.576,test1,2020.2.5,Win32,60
,,,,z,1.40436,0,71,71,71,1,flowers/images/293.jpg,flowers/images/158.jpg,72,Dasha Pavlovska,001,2020-11-19_14h42.22.576,test1,2020.2.5,Win32,60
,,,,z,2.445575,0,72,72,72,1,flowers/images/390.jpg,flowers/images/58.jpg,73,Dasha Pavlovska,001,2020-11-19_14h42.22.576,test1,2020.2.5,Win32,60
,,,,z,1.08414,0,73,73,73,1,flowers/images/82.jpg,flowers/images/16.jpg,74,Dasha Pavlovska,001,2020-11-19_14h42.22.576,test1,2020.2.5,Win32,60
,,,,m,1.90935,0,74,74,74,1,flowers/images/336.jpg,flowers/images/130.jpg,75,Dasha Pavlovska,001,2020-11-19_14h42.22.576,test1,2020.2.5,Win32,60
,,,,m,1.20754,0,75,75,75,1,flowers/images/160.jpg,flowers/images/105.jpg,76,Dasha Pavlovska,001,2020-11-19_14h42.22.576,test1,2020.2.5,Win32,60
,,,,z,0.908675,0,76,76,76,1,flowers/images/328.jpg,flowers/images/305.jpg,77,Dasha Pavlovska,001,2020-11-19_14h42.22.576,test1,2020.2.5,Win32,60
,,,,m,0.8932,0,77,77,77,1,flowers/images/180.jpg,flowers/images/249.jpg,78,Dasha Pavlovska,001,2020-11-19_14h42.22.576,test1,2020.2.5,Win32,60
,,,,m,1.67132,0,78,78,78,1,flowers/images/169.jpg,flowers/images/94.jpg,79,Dasha Pavlovska,001,2020-11-19_14h42.22.576,test1,2020.2.5,Win32,60
,,,,z,1.764405,0,79,79,79,1,flowers/images/145.jpg,flowers/images/277.jpg,80,Dasha Pavlovska,001,2020-11-19_14h42.22.576,test1,2020.2.5,Win32,60
,,,,m,2.90407,0,80,80,80,1,flowers/images/358.jpg,flowers/images/197.jpg,81,Dasha Pavlovska,001,2020-11-19_14h42.22.576,test1,2020.2.5,Win32,60
,,,,z,2.45061,0,81,81,81,1,flowers/images/71.jpg,flowers/images/128.jpg,82,Dasha Pavlovska,001,2020-11-19_14h42.22.576,test1,2020.2.5,Win32,60
,,,,m,1.26358,0,82,82,82,1,flowers/images/192.jpg,flowers/images/379.jpg,83,Dasha Pavlovska,001,2020-11-19_14h42.22.576,test1,2020.2.5,Win32,60
,,,,z,3.251925,0,83,83,83,1,flowers/images/189.jpg,flowers/images/271.jpg,84,Dasha Pavlovska,001,2020-11-19_14h42.22.576,test1,2020.2.5,Win32,60
,,,,m,1.483295,0,84,84,84,1,flowers/images/15.jpg,flowers/images/28.jpg,85,Dasha Pavlovska,001,2020-11-19_14h42.22.576,test1,2020.2.5,Win32,60
,,,,m,1.164445,0,85,85,85,1,flowers/images/171.jpg,flowers/images/97.jpg,86,Dasha Pavlovska,001,2020-11-19_14h42.22.576,test1,2020.2.5,Win32,60
,,,,m,2.17651,0,86,86,86,1,flowers/images/287.jpg,flowers/images/29.jpg,87,Dasha Pavlovska,001,2020-11-19_14h42.22.576,test1,2020.2.5,Win32,60
,,,,m,4.82151,0,87,87,87,1,flowers/images/381.jpg,flowers/images/356.jpg,88,Dasha Pavlovska,001,2020-11-19_14h42.22.576,test1,2020.2.5,Win32,60
,,,,m,3.74862,0,88,88,88,1,flowers/images/76.jpg,flowers/images/10.jpg,89,Dasha Pavlovska,001,2020-11-19_14h42.22.576,test1,2020.2.5,Win32,60
,,,,z,1.859105,0,89,89,89,1,flowers/images/239.jpg,flowers/images/226.jpg,90,Dasha Pavlovska,001,2020-11-19_14h42.22.576,test1,2020.2.5,Win32,60
,,,,z,2.089135,0,90,90,90,1,flowers/images/398.jpg,flowers/images/368.jpg,91,Dasha Pavlovska,001,2020-11-19_14h42.22.576,test1,2020.2.5,Win32,60
,,,,z,1.520905,0,91,91,91,1,flowers/images/21.jpg,flowers/images/53.jpg,92,Dasha Pavlovska,001,2020-11-19_14h42.22.576,test1,2020.2.5,Win32,60
,,,,z,2.42589,0,92,92,92,1,flowers/images/352.jpg,flowers/images/230.jpg,93,Dasha Pavlovska,001,2020-11-19_14h42.22.576,test1,2020.2.5,Win32,60
,,,,z,1.862055,0,93,93,93,1,flowers/images/54.jpg,flowers/images/280.jpg,94,Dasha Pavlovska,001,2020-11-19_14h42.22.576,test1,2020.2.5,Win32,60
,,,,z,2.072155,0,94,94,94,1,flowers/images/259.jpg,flowers/images/184.jpg,95,Dasha Pavlovska,001,2020-11-19_14h42.22.576,test1,2020.2.5,Win32,60
,,,,m,1.688155,0,95,95,95,1,flowers/images/7.jpg,flowers/images/137.jpg,96,Dasha Pavlovska,001,2020-11-19_14h42.22.576,test1,2020.2.5,Win32,60
,,,,z,1.58902,0,96,96,96,1,flowers/images/292.jpg,flowers/images/364.jpg,97,Dasha Pavlovska,001,2020-11-19_14h42.22.576,test1,2020.2.5,Win32,60
,,,,m,2.11483,0,97,97,97,1,flowers/images/84.jpg,flowers/images/245.jpg,98,Dasha Pavlovska,001,2020-11-19_14h42.22.576,test1,2020.2.5,Win32,60
,,,,z,1.357615,0,98,98,98,1,flowers/images/141.jpg,flowers/images/183.jpg,99,Dasha Pavlovska,001,2020-11-19_14h42.22.576,test1,2020.2.5,Win32,60
,,,,z,1.86017,0,99,99,99,1,flowers/images/45.jpg,flowers/images/375.jpg,100,Dasha Pavlovska,001,2020-11-19_14h42.22.576,test1,2020.2.5,Win32,60
,,,,m,1.67296,0,100,100,100,1,flowers/images/111.jpg,flowers/images/395.jpg,101,Dasha Pavlovska,001,2020-11-19_14h42.22.576,test1,2020.2.5,Win32,60
,,,,z,3.39603,0,101,101,101,1,flowers/images/46.jpg,flowers/images/360.jpg,102,Dasha Pavlovska,001,2020-11-19_14h42.22.576,test1,2020.2.5,Win32,60
,,,,m,5.421255,0,102,102,102,1,flowers/images/399.jpg,flowers/images/4.jpg,103,Dasha Pavlovska,001,2020-11-19_14h42.22.576,test1,2020.2.5,Win32,60
,,,,z,2.03415,0,103,103,103,1,flowers/images/250.jpg,flowers/images/113.jpg,104,Dasha Pavlovska,001,2020-11-19_14h42.22.576,test1,2020.2.5,Win32,60
,,,,z,1.990895,0,104,104,104,1,flowers/images/359.jpg,flowers/images/283.jpg,105,Dasha Pavlovska,001,2020-11-19_14h42.22.576,test1,2020.2.5,Win32,60
,,,,m,1.78811,0,105,105,105,1,flowers/images/209.jpg,flowers/images/309.jpg,106,Dasha Pavlovska,001,2020-11-19_14h42.22.576,test1,2020.2.5,Win32,60
,,,,m,3.14586,0,106,106,106,1,flowers/images/219.jpg,flowers/images/285.jpg,107,Dasha Pavlovska,001,2020-11-19_14h42.22.576,test1,2020.2.5,Win32,60
,,,,m,3.8664,0,107,107,107,1,flowers/images/159.jpg,flowers/images/377.jpg,108,Dasha Pavlovska,001,2020-11-19_14h42.22.576,test1,2020.2.5,Win32,60
,,,,m,1.51347,0,108,108,108,1,flowers/images/17.jpg,flowers/images/365.jpg,109,Dasha Pavlovska,001,2020-11-19_14h42.22.576,test1,2020.2.5,Win32,60
,,,,z,1.003665,0,109,109,109,1,flowers/images/247.jpg,flowers/images/14.jpg,110,Dasha Pavlovska,001,2020-11-19_14h42.22.576,test1,2020.2.5,Win32,60
,,,,z,1.410135,0,110,110,110,1,flowers/images/357.jpg,flowers/images/229.jpg,111,Dasha Pavlovska,001,2020-11-19_14h42.22.576,test1,2020.2.5,Win32,60
,,,,m,2.168235,0,111,111,111,1,flowers/images/378.jpg,flowers/images/299.jpg,112,Dasha Pavlovska,001,2020-11-19_14h42.22.576,test1,2020.2.5,Win32,60
,,,,m,2.029355,0,112,112,112,1,flowers/images/191.jpg,flowers/images/304.jpg,113,Dasha Pavlovska,001,2020-11-19_14h42.22.576,test1,2020.2.5,Win32,60
,,,,z,1.921865,0,113,113,113,1,flowers/images/195.jpg,flowers/images/44.jpg,114,Dasha Pavlovska,001,2020-11-19_14h42.22.576,test1,2020.2.5,Win32,60
,,,,z,2.17295,0,114,114,114,1,flowers/images/126.jpg,flowers/images/161.jpg,115,Dasha Pavlovska,001,2020-11-19_14h42.22.576,test1,2020.2.5,Win32,60
,,,,z,0.81241,0,115,115,115,1,flowers/images/340.jpg,flowers/images/178.jpg,116,Dasha Pavlovska,001,2020-11-19_14h42.22.576,test1,2020.2.5,Win32,60
,,,,m,3.314015,0,116,116,116,1,flowers/images/201.jpg,flowers/images/21.jpg,117,Dasha Pavlovska,001,2020-11-19_14h42.22.576,test1,2020.2.5,Win32,60
,,,,z,1.078895,0,117,117,117,1,flowers/images/307.jpg,flowers/images/122.jpg,118,Dasha Pavlovska,001,2020-11-19_14h42.22.576,test1,2020.2.5,Win32,60
,,,,z,1.79286,0,118,118,118,1,flowers/images/194.jpg,flowers/images/23.jpg,119,Dasha Pavlovska,001,2020-11-19_14h42.22.576,test1,2020.2.5,Win32,60
,,,,z,3.13468,0,119,119,119,1,flowers/images/318.jpg,flowers/images/293.jpg,120,Dasha Pavlovska,001,2020-11-19_14h42.22.576,test1,2020.2.5,Win32,60
,,,,m,2.08903,0,120,120,120,1,flowers/images/69.jpg,flowers/images/327.jpg,121,Dasha Pavlovska,001,2020-11-19_14h42.22.576,test1,2020.2.5,Win32,60
,,,,m,1.32876,0,121,121,121,1,flowers/images/98.jpg,flowers/images/208.jpg,122,Dasha Pavlovska,001,2020-11-19_14h42.22.576,test1,2020.2.5,Win32,60
,,,,z,2.26539,0,122,122,122,1,flowers/images/184.jpg,flowers/images/96.jpg,123,Dasha Pavlovska,001,2020-11-19_14h42.22.576,test1,2020.2.5,Win32,60
,,,,m,4.577375,0,123,123,123,1,flowers/images/44.jpg,flowers/images/317.jpg,124,Dasha Pavlovska,001,2020-11-19_14h42.22.576,test1,2020.2.5,Win32,60
,,,,z,2.86555,0,124,124,124,1,flowers/images/222.jpg,flowers/images/9.jpg,125,Dasha Pavlovska,001,2020-11-19_14h42.22.576,test1,2020.2.5,Win32,60
,,,,m,2.30828,0,125,125,125,1,flowers/images/218.jpg,flowers/images/153.jpg,126,Dasha Pavlovska,001,2020-11-19_14h42.22.576,test1,2020.2.5,Win32,60
,,,,z,0.87688,0,126,126,126,1,flowers/images/275.jpg,flowers/images/295.jpg,127,Dasha Pavlovska,001,2020-11-19_14h42.22.576,test1,2020.2.5,Win32,60
,,,,z,3.384395,0,127,127,127,1,flowers/images/172.jpg,flowers/images/34.jpg,128,Dasha Pavlovska,001,2020-11-19_14h42.22.576,test1,2020.2.5,Win32,60
,,,,z,3.200615,0,128,128,128,1,flowers/images/345.jpg,flowers/images/89.jpg,129,Dasha Pavlovska,001,2020-11-19_14h42.22.576,test1,2020.2.5,Win32,60
,,,,m,1.623855,0,129,129,129,1,flowers/images/334.jpg,flowers/images/376.jpg,130,Dasha Pavlovska,001,2020-11-19_14h42.22.576,test1,2020.2.5,Win32,60
,,,,m,1.159435,0,130,130,130,1,flowers/images/93.jpg,flowers/images/6.jpg,131,Dasha Pavlovska,001,2020-11-19_14h42.22.576,test1,2020.2.5,Win32,60
,,,,m,1.7314,0,131,131,131,1,flowers/images/183.jpg,flowers/images/76.jpg,132,Dasha Pavlovska,001,2020-11-19_14h42.22.576,test1,2020.2.5,Win32,60
,,,,z,2.33383,0,132,132,132,1,flowers/images/304.jpg,flowers/images/224.jpg,133,Dasha Pavlovska,001,2020-11-19_14h42.22.576,test1,2020.2.5,Win32,60
,,,,z,1.105365,0,133,133,133,1,flowers/images/330.jpg,flowers/images/81.jpg,134,Dasha Pavlovska,001,2020-11-19_14h42.22.576,test1,2020.2.5,Win32,60
,,,,m,3.37412,0,134,134,134,1,flowers/images/147.jpg,flowers/images/36.jpg,135,Dasha Pavlovska,001,2020-11-19_14h42.22.576,test1,2020.2.5,Win32,60
,,,,z,4.282805,0,135,135,135,1,flowers/images/62.jpg,flowers/images/321.jpg,136,Dasha Pavlovska,001,2020-11-19_14h42.22.576,test1,2020.2.5,Win32,60
,,,,m,1.22079,0,136,136,136,1,flowers/images/367.jpg,flowers/images/311.jpg,137,Dasha Pavlovska,001,2020-11-19_14h42.22.576,test1,2020.2.5,Win32,60
,,,,z,0.96714,0,137,137,137,1,flowers/images/326.jpg,flowers/images/7.jpg,138,Dasha Pavlovska,001,2020-11-19_14h42.22.576,test1,2020.2.5,Win32,60
,,,,m,3.876045,0,138,138,138,1,flowers/images/28.jpg,flowers/images/382.jpg,139,Dasha Pavlovska,001,2020-11-19_14h42.22.576,test1,2020.2.5,Win32,60
,,,,m,1.63626,0,139,139,139,1,flowers/images/156.jpg,flowers/images/152.jpg,140,Dasha Pavlovska,001,2020-11-19_14h42.22.576,test1,2020.2.5,Win32,60
,,,,m,2.149735,0,140,140,140,1,flowers/images/113.jpg,flowers/images/167.jpg,141,Dasha Pavlovska,001,2020-11-19_14h42.22.576,test1,2020.2.5,Win32,60
,,,,m,2.09705,0,141,141,141,1,flowers/images/155.jpg,flowers/images/342.jpg,142,Dasha Pavlovska,001,2020-11-19_14h42.22.576,test1,2020.2.5,Win32,60
,,,,z,1.47722,0,142,142,142,1,flowers/images/213.jpg,flowers/images/353.jpg,143,Dasha Pavlovska,001,2020-11-19_14h42.22.576,test1,2020.2.5,Win32,60
,,,,z,1.920315,0,143,143,143,1,flowers/images/298.jpg,flowers/images/90.jpg,144,Dasha Pavlovska,001,2020-11-19_14h42.22.576,test1,2020.2.5,Win32,60
,,,,m,1.848095,0,144,144,144,1,flowers/images/217.jpg,flowers/images/240.jpg,145,Dasha Pavlovska,001,2020-11-19_14h42.22.576,test1,2020.2.5,Win32,60
,,,,m,2.423915,0,145,145,145,1,flowers/images/97.jpg,flowers/images/133.jpg,146,Dasha Pavlovska,001,2020-11-19_14h42.22.576,test1,2020.2.5,Win32,60
,,,,z,2.835705,0,146,146,146,1,flowers/images/354.jpg,flowers/images/310.jpg,147,Dasha Pavlovska,001,2020-11-19_14h42.22.576,test1,2020.2.5,Win32,60
,,,,z,1.57534,0,147,147,147,1,flowers/images/377.jpg,flowers/images/273.jpg,148,Dasha Pavlovska,001,2020-11-19_14h42.22.576,test1,2020.2.5,Win32,60
,,,,m,1.40606,0,148,148,148,1,flowers/images/121.jpg,flowers/images/294.jpg,149,Dasha Pavlovska,001,2020-11-19_14h42.22.576,test1,2020.2.5,Win32,60
,,,,m,1.378415,0,149,149,149,1,flowers/images/14.jpg,flowers/images/101.jpg,150,Dasha Pavlovska,001,2020-11-19_14h42.22.576,test1,2020.2.5,Win32,60
,,,,m,1.43107,0,150,150,150,1,flowers/images/321.jpg,flowers/images/51.jpg,151,Dasha Pavlovska,001,2020-11-19_14h42.22.576,test1,2020.2.5,Win32,60
,,,,m,1.8557,0,151,151,151,1,flowers/images/362.jpg,flowers/images/175.jpg,152,Dasha Pavlovska,001,2020-11-19_14h42.22.576,test1,2020.2.5,Win32,60
,,,,z,1.15538,0,152,152,152,1,flowers/images/203.jpg,flowers/images/248.jpg,153,Dasha Pavlovska,001,2020-11-19_14h42.22.576,test1,2020.2.5,Win32,60
,,,,z,3.118235,0,153,153,153,1,flowers/images/12.jpg,flowers/images/300.jpg,154,Dasha Pavlovska,001,2020-11-19_14h42.22.576,test1,2020.2.5,Win32,60
,,,,z,1.610155,0,154,154,154,1,flowers/images/365.jpg,flowers/images/218.jpg,155,Dasha Pavlovska,001,2020-11-19_14h42.22.576,test1,2020.2.5,Win32,60
,,,,z,2.012305,0,155,155,155,1,flowers/images/75.jpg,flowers/images/109.jpg,156,Dasha Pavlovska,001,2020-11-19_14h42.22.576,test1,2020.2.5,Win32,60
,,,,m,1.19805,0,156,156,156,1,flowers/images/127.jpg,flowers/images/333.jpg,157,Dasha Pavlovska,001,2020-11-19_14h42.22.576,test1,2020.2.5,Win32,60
,,,,z,2.24816,0,157,157,157,1,flowers/images/258.jpg,flowers/images/135.jpg,158,Dasha Pavlovska,001,2020-11-19_14h42.22.576,test1,2020.2.5,Win32,60
,,,,z,2.51398,0,158,158,158,1,flowers/images/343.jpg,flowers/images/65.jpg,159,Dasha Pavlovska,001,2020-11-19_14h42.22.576,test1,2020.2.5,Win32,60
,,,,m,1.216065,0,159,159,159,1,flowers/images/58.jpg,flowers/images/138.jpg,160,Dasha Pavlovska,001,2020-11-19_14h42.22.576,test1,2020.2.5,Win32,60
,,,,m,1.50251,0,160,160,160,1,flowers/images/94.jpg,flowers/images/234.jpg,161,Dasha Pavlovska,001,2020-11-19_14h42.22.576,test1,2020.2.5,Win32,60
,,,,z,1.34792,0,161,161,161,1,flowers/images/379.jpg,flowers/images/207.jpg,162,Dasha Pavlovska,001,2020-11-19_14h42.22.576,test1,2020.2.5,Win32,60
,,,,m,5.28714,0,162,162,162,1,flowers/images/128.jpg,flowers/images/79.jpg,163,Dasha Pavlovska,001,2020-11-19_14h42.22.576,test1,2020.2.5,Win32,60
,,,,m,1.44491,0,163,163,163,1,flowers/images/47.jpg,flowers/images/85.jpg,164,Dasha Pavlovska,001,2020-11-19_14h42.22.576,test1,2020.2.5,Win32,60
,,,,z,1.8996,0,164,164,164,1,flowers/images/19.jpg,flowers/images/191.jpg,165,Dasha Pavlovska,001,2020-11-19_14h42.22.576,test1,2020.2.5,Win32,60
,,,,m,1.23037,0,165,165,165,1,flowers/images/32.jpg,flowers/images/259.jpg,166,Dasha Pavlovska,001,2020-11-19_14h42.22.576,test1,2020.2.5,Win32,60
,,,,m,1.51578,0,166,166,166,1,flowers/images/323.jpg,flowers/images/284.jpg,167,Dasha Pavlovska,001,2020-11-19_14h42.22.576,test1,2020.2.5,Win32,60
,,,,m,1.035135,0,167,167,167,1,flowers/images/395.jpg,flowers/images/348.jpg,168,Dasha Pavlovska,001,2020-11-19_14h42.22.576,test1,2020.2.5,Win32,60
,,,,m,1.272955,0,168,168,168,1,flowers/images/279.jpg,flowers/images/370.jpg,169,Dasha Pavlovska,001,2020-11-19_14h42.22.576,test1,2020.2.5,Win32,60
,,,,m,1.077235,0,169,169,169,1,flowers/images/264.jpg,flowers/images/125.jpg,170,Dasha Pavlovska,001,2020-11-19_14h42.22.576,test1,2020.2.5,Win32,60
,,,,m,1.71498,0,170,170,170,1,flowers/images/77.jpg,flowers/images/318.jpg,171,Dasha Pavlovska,001,2020-11-19_14h42.22.576,test1,2020.2.5,Win32,60
,,,,m,0.787115,0,171,171,171,1,flowers/images/376.jpg,flowers/images/242.jpg,172,Dasha Pavlovska,001,2020-11-19_14h42.22.576,test1,2020.2.5,Win32,60
,,,,z,1.567315,0,172,172,172,1,flowers/images/351.jpg,flowers/images/132.jpg,173,Dasha Pavlovska,001,2020-11-19_14h42.22.576,test1,2020.2.5,Win32,60
,,,,z,2.45526,0,173,173,173,1,flowers/images/305.jpg,flowers/images/252.jpg,174,Dasha Pavlovska,001,2020-11-19_14h42.22.576,test1,2020.2.5,Win32,60
,,,,z,1.690845,0,174,174,174,1,flowers/images/29.jpg,flowers/images/217.jpg,175,Dasha Pavlovska,001,2020-11-19_14h42.22.576,test1,2020.2.5,Win32,60
,,,,m,2.556425,0,175,175,175,1,flowers/images/3.jpg,flowers/images/228.jpg,176,Dasha Pavlovska,001,2020-11-19_14h42.22.576,test1,2020.2.5,Win32,60
,,,,m,1.155885,0,176,176,176,1,flowers/images/199.jpg,flowers/images/330.jpg,177,Dasha Pavlovska,001,2020-11-19_14h42.22.576,test1,2020.2.5,Win32,60
,,,,z,2.96248,0,177,177,177,1,flowers/images/274.jpg,flowers/images/179.jpg,178,Dasha Pavlovska,001,2020-11-19_14h42.22.576,test1,2020.2.5,Win32,60
,,,,z,1.64301,0,178,178,178,1,flowers/images/346.jpg,flowers/images/290.jpg,179,Dasha Pavlovska,001,2020-11-19_14h42.22.576,test1,2020.2.5,Win32,60
,,,,m,1.725625,0,179,179,179,1,flowers/images/56.jpg,flowers/images/204.jpg,180,Dasha Pavlovska,001,2020-11-19_14h42.22.576,test1,2020.2.5,Win32,60
,,,,m,2.634345,0,180,180,180,1,flowers/images/179.jpg,flowers/images/114.jpg,181,Dasha Pavlovska,001,2020-11-19_14h42.22.576,test1,2020.2.5,Win32,60
,,,,m,1.48971,0,181,181,181,1,flowers/images/36.jpg,flowers/images/223.jpg,182,Dasha Pavlovska,001,2020-11-19_14h42.22.576,test1,2020.2.5,Win32,60
,,,,z,1.106825,0,182,182,182,1,flowers/images/344.jpg,flowers/images/168.jpg,183,Dasha Pavlovska,001,2020-11-19_14h42.22.576,test1,2020.2.5,Win32,60
,,,,m,1.873735,0,183,183,183,1,flowers/images/153.jpg,flowers/images/22.jpg,184,Dasha Pavlovska,001,2020-11-19_14h42.22.576,test1,2020.2.5,Win32,60
,,,,m,2.71377,0,184,184,184,1,flowers/images/39.jpg,flowers/images/323.jpg,185,Dasha Pavlovska,001,2020-11-19_14h42.22.576,test1,2020.2.5,Win32,60
,,,,m,2.211235,0,185,185,185,1,flowers/images/327.jpg,flowers/images/349.jpg,186,Dasha Pavlovska,001,2020-11-19_14h42.22.576,test1,2020.2.5,Win32,60
,,,,z,3.59916,0,186,186,186,1,flowers/images/81.jpg,flowers/images/30.jpg,187,Dasha Pavlovska,001,2020-11-19_14h42.22.576,test1,2020.2.5,Win32,60
,,,,z,1.70662,0,187,187,187,1,flowers/images/42.jpg,flowers/images/107.jpg,188,Dasha Pavlovska,001,2020-11-19_14h42.22.576,test1,2020.2.5,Win32,60
,,,,z,2.269775,0,188,188,188,1,flowers/images/18.jpg,flowers/images/358.jpg,189,Dasha Pavlovska,001,2020-11-19_14h42.22.576,test1,2020.2.5,Win32,60
,,,,m,1.375355,0,189,189,189,1,flowers/images/200.jpg,flowers/images/385.jpg,190,Dasha Pavlovska,001,2020-11-19_14h42.22.576,test1,2020.2.5,Win32,60
,,,,m,1.74325,0,190,190,190,1,flowers/images/369.jpg,flowers/images/233.jpg,191,Dasha Pavlovska,001,2020-11-19_14h42.22.576,test1,2020.2.5,Win32,60
,,,,z,1.21746,0,191,191,191,1,flowers/images/309.jpg,flowers/images/320.jpg,192,Dasha Pavlovska,001,2020-11-19_14h42.22.576,test1,2020.2.5,Win32,60
,,,,m,1.322915,0,192,192,192,1,flowers/images/64.jpg,flowers/images/303.jpg,193,Dasha Pavlovska,001,2020-11-19_14h42.22.576,test1,2020.2.5,Win32,60
,,,,m,3.59704,0,193,193,193,1,flowers/images/86.jpg,flowers/images/216.jpg,194,Dasha Pavlovska,001,2020-11-19_14h42.22.576,test1,2020.2.5,Win32,60
,,,,m,1.37548,0,194,194,194,1,flowers/images/260.jpg,flowers/images/361.jpg,195,Dasha Pavlovska,001,2020-11-19_14h42.22.576,test1,2020.2.5,Win32,60
,,,,m,0.969185,0,195,195,195,1,flowers/images/9.jpg,flowers/images/173.jpg,196,Dasha Pavlovska,001,2020-11-19_14h42.22.576,test1,2020.2.5,Win32,60
,,,,z,1.59666,0,196,196,196,1,flowers/images/22.jpg,flowers/images/41.jpg,197,Dasha Pavlovska,001,2020-11-19_14h42.22.576,test1,2020.2.5,Win32,60
,,,,z,5.67952,0,197,197,197,1,flowers/images/214.jpg,flowers/images/145.jpg,198,Dasha Pavlovska,001,2020-11-19_14h42.22.576,test1,2020.2.5,Win32,60
,,,,z,0.89765,0,198,198,198,1,flowers/images/72.jpg,flowers/images/308.jpg,199,Dasha Pavlovska,001,2020-11-19_14h42.22.576,test1,2020.2.5,Win32,60
,,,,m,2.46839,0,199,199,199,1,flowers/images/34.jpg,flowers/images/237.jpg,200,Dasha Pavlovska,001,2020-11-19_14h42.22.576,test1,2020.2.5,Win32,60
,,,,m,2.0699,0,200,200,200,1,flowers/images/166.jpg,flowers/images/169.jpg,201,Dasha Pavlovska,001,2020-11-19_14h42.22.576,test1,2020.2.5,Win32,60
,,,,z,1.423515,0,201,201,201,1,flowers/images/161.jpg,flowers/images/68.jpg,202,Dasha Pavlovska,001,2020-11-19_14h42.22.576,test1,2020.2.5,Win32,60
,,,,z,1.28466,0,202,202,202,1,flowers/images/319.jpg,flowers/images/341.jpg,203,Dasha Pavlovska,001,2020-11-19_14h42.22.576,test1,2020.2.5,Win32,60
,,,,m,2.694565,0,203,203,203,1,flowers/images/322.jpg,flowers/images/111.jpg,204,Dasha Pavlovska,001,2020-11-19_14h42.22.576,test1,2020.2.5,Win32,60
,,,,m,1.89075,0,204,204,204,1,flowers/images/2.jpg,flowers/images/95.jpg,205,Dasha Pavlovska,001,2020-11-19_14h42.22.576,test1,2020.2.5,Win32,60
,,,,m,2.312315,0,205,205,205,1,flowers/images/276.jpg,flowers/images/66.jpg,206,Dasha Pavlovska,001,2020-11-19_14h42.22.576,test1,2020.2.5,Win32,60
,,,,m,1.084005,0,206,206,206,1,flowers/images/116.jpg,flowers/images/206.jpg,207,Dasha Pavlovska,001,2020-11-19_14h42.22.576,test1,2020.2.5,Win32,60
,,,,z,0.98659,0,207,207,207,1,flowers/images/282.jpg,flowers/images/314.jpg,208,Dasha Pavlovska,001,2020-11-19_14h42.22.576,test1,2020.2.5,Win32,60
,,,,z,1.371885,0,208,208,208,1,flowers/images/261.jpg,flowers/images/260.jpg,209,Dasha Pavlovska,001,2020-11-19_14h42.22.576,test1,2020.2.5,Win32,60
,,,,m,2.17805,0,209,209,209,1,flowers/images/353.jpg,flowers/images/151.jpg,210,Dasha Pavlovska,001,2020-11-19_14h42.22.576,test1,2020.2.5,Win32,60
,,,,m,2.73951,0,210,210,210,1,flowers/images/216.jpg,flowers/images/156.jpg,211,Dasha Pavlovska,001,2020-11-19_14h42.22.576,test1,2020.2.5,Win32,60
,,,,z,0.933935,0,211,211,211,1,flowers/images/320.jpg,flowers/images/292.jpg,212,Dasha Pavlovska,001,2020-11-19_14h42.22.576,test1,2020.2.5,Win32,60
,,,,m,1.855615,0,212,212,212,1,flowers/images/149.jpg,flowers/images/279.jpg,213,Dasha Pavlovska,001,2020-11-19_14h42.22.576,test1,2020.2.5,Win32,60
,,,,z,0.929785,0,213,213,213,1,flowers/images/163.jpg,flowers/images/219.jpg,214,Dasha Pavlovska,001,2020-11-19_14h42.22.576,test1,2020.2.5,Win32,60
,,,,m,1.3458,0,214,214,214,1,flowers/images/10.jpg,flowers/images/232.jpg,215,Dasha Pavlovska,001,2020-11-19_14h42.22.576,test1,2020.2.5,Win32,60
,,,,z,3.4198,0,215,215,215,1,flowers/images/55.jpg,flowers/images/73.jpg,216,Dasha Pavlovska,001,2020-11-19_14h42.22.576,test1,2020.2.5,Win32,60
,,,,m,0.97119,0,216,216,216,1,flowers/images/123.jpg,flowers/images/189.jpg,217,Dasha Pavlovska,001,2020-11-19_14h42.22.576,test1,2020.2.5,Win32,60
,,,,m,1.849855,0,217,217,217,1,flowers/images/37.jpg,flowers/images/254.jpg,218,Dasha Pavlovska,001,2020-11-19_14h42.22.576,test1,2020.2.5,Win32,60
,,,,m,4.32971,0,218,218,218,1,flowers/images/230.jpg,flowers/images/166.jpg,219,Dasha Pavlovska,001,2020-11-19_14h42.22.576,test1,2020.2.5,Win32,60
,,,,z,0.914345,0,219,219,219,1,flowers/images/338.jpg,flowers/images/33.jpg,220,Dasha Pavlovska,001,2020-11-19_14h42.22.576,test1,2020.2.5,Win32,60
,,,,m,1.43264,0,220,220,220,1,flowers/images/337.jpg,flowers/images/193.jpg,221,Dasha Pavlovska,001,2020-11-19_14h42.22.576,test1,2020.2.5,Win32,60
,,,,m,1.211655,0,221,221,221,1,flowers/images/83.jpg,flowers/images/339.jpg,222,Dasha Pavlovska,001,2020-11-19_14h42.22.576,test1,2020.2.5,Win32,60
,,,,z,1.57622,0,222,222,222,1,flowers/images/190.jpg,flowers/images/99.jpg,223,Dasha Pavlovska,001,2020-11-19_14h42.22.576,test1,2020.2.5,Win32,60
,,,,m,1.58003,0,223,223,223,1,flowers/images/257.jpg,flowers/images/369.jpg,224,Dasha Pavlovska,001,2020-11-19_14h42.22.576,test1,2020.2.5,Win32,60
,,,,m,4.320135,0,224,224,224,1,flowers/images/280.jpg,flowers/images/355.jpg,225,Dasha Pavlovska,001,2020-11-19_14h42.22.576,test1,2020.2.5,Win32,60
,,,,m,1.013695,0,225,225,225,1,flowers/images/105.jpg,flowers/images/338.jpg,226,Dasha Pavlovska,001,2020-11-19_14h42.22.576,test1,2020.2.5,Win32,60
,,,,z,1.312935,0,226,226,226,1,flowers/images/202.jpg,flowers/images/3.jpg,227,Dasha Pavlovska,001,2020-11-19_14h42.22.576,test1,2020.2.5,Win32,60
,,,,z,1.253705,0,227,227,227,1,flowers/images/212.jpg,flowers/images/38.jpg,228,Dasha Pavlovska,001,2020-11-19_14h42.22.576,test1,2020.2.5,Win32,60
,,,,z,1.22754,0,228,228,228,1,flowers/images/152.jpg,flowers/images/0.jpg,229,Dasha Pavlovska,001,2020-11-19_14h42.22.576,test1,2020.2.5,Win32,60
,,,,m,1.78962,0,229,229,229,1,flowers/images/170.jpg,flowers/images/296.jpg,230,Dasha Pavlovska,001,2020-11-19_14h42.22.576,test1,2020.2.5,Win32,60
,,,,m,1.577815,0,230,230,230,1,flowers/images/74.jpg,flowers/images/80.jpg,231,Dasha Pavlovska,001,2020-11-19_14h42.22.576,test1,2020.2.5,Win32,60
,,,,m,1.735325,0,231,231,231,1,flowers/images/226.jpg,flowers/images/117.jpg,232,Dasha Pavlovska,001,2020-11-19_14h42.22.576,test1,2020.2.5,Win32,60
,,,,m,1.28924,0,232,232,232,1,flowers/images/1.jpg,flowers/images/19.jpg,233,Dasha Pavlovska,001,2020-11-19_14h42.22.576,test1,2020.2.5,Win32,60
,,,,m,0.854445,0,233,233,233,1,flowers/images/182.jpg,flowers/images/335.jpg,234,Dasha Pavlovska,001,2020-11-19_14h42.22.576,test1,2020.2.5,Win32,60
,,,,z,1.010275,0,234,234,234,1,flowers/images/245.jpg,flowers/images/62.jpg,235,Dasha Pavlovska,001,2020-11-19_14h42.22.576,test1,2020.2.5,Win32,60
,,,,m,1.23552,0,235,235,235,1,flowers/images/167.jpg,flowers/images/49.jpg,236,Dasha Pavlovska,001,2020-11-19_14h42.22.576,test1,2020.2.5,Win32,60
,,,,z,2.36492,0,236,236,236,1,flowers/images/38.jpg,flowers/images/250.jpg,237,Dasha Pavlovska,001,2020-11-19_14h42.22.576,test1,2020.2.5,Win32,60
,,,,m,3.499155,0,237,237,237,1,flowers/images/124.jpg,flowers/images/324.jpg,238,Dasha Pavlovska,001,2020-11-19_14h42.22.576,test1,2020.2.5,Win32,60
,,,,z,1.750165,0,238,238,238,1,flowers/images/92.jpg,flowers/images/13.jpg,239,Dasha Pavlovska,001,2020-11-19_14h42.22.576,test1,2020.2.5,Win32,60
,,,,m,3.668935,0,239,239,239,1,flowers/images/120.jpg,flowers/images/374.jpg,240,Dasha Pavlovska,001,2020-11-19_14h42.22.576,test1,2020.2.5,Win32,60
,,,,z,0.994905,0,240,240,240,1,flowers/images/350.jpg,flowers/images/100.jpg,241,Dasha Pavlovska,001,2020-11-19_14h42.22.576,test1,2020.2.5,Win32,60
,,,,m,1.157805,0,241,241,241,1,flowers/images/68.jpg,flowers/images/236.jpg,242,Dasha Pavlovska,001,2020-11-19_14h42.22.576,test1,2020.2.5,Win32,60
,,,,m,1.76287,0,242,242,242,1,flowers/images/5.jpg,flowers/images/340.jpg,243,Dasha Pavlovska,001,2020-11-19_14h42.22.576,test1,2020.2.5,Win32,60
,,,,m,1.07343,0,243,243,243,1,flowers/images/99.jpg,flowers/images/313.jpg,244,Dasha Pavlovska,001,2020-11-19_14h42.22.576,test1,2020.2.5,Win32,60
,,,,m,1.28343,0,244,244,244,1,flowers/images/229.jpg,flowers/images/177.jpg,245,Dasha Pavlovska,001,2020-11-19_14h42.22.576,test1,2020.2.5,Win32,60
,,,,m,0.617655,0,245,245,245,1,flowers/images/361.jpg,flowers/images/383.jpg,246,Dasha Pavlovska,001,2020-11-19_14h42.22.576,test1,2020.2.5,Win32,60
,,,,m,2.984145,0,246,246,246,1,flowers/images/129.jpg,flowers/images/398.jpg,247,Dasha Pavlovska,001,2020-11-19_14h42.22.576,test1,2020.2.5,Win32,60
,,,,z,3.103095,0,247,247,247,1,flowers/images/228.jpg,flowers/images/159.jpg,248,Dasha Pavlovska,001,2020-11-19_14h42.22.576,test1,2020.2.5,Win32,60
,,,,z,1.701015,0,248,248,248,1,flowers/images/65.jpg,flowers/images/312.jpg,249,Dasha Pavlovska,001,2020-11-19_14h42.22.576,test1,2020.2.5,Win32,60
,,,,m,1.13317,0,249,249,249,1,flowers/images/73.jpg,flowers/images/163.jpg,250,Dasha Pavlovska,001,2020-11-19_14h42.22.576,test1,2020.2.5,Win32,60
,,,,m,1.547035,0,250,250,250,1,flowers/images/224.jpg,flowers/images/278.jpg,251,Dasha Pavlovska,001,2020-11-19_14h42.22.576,test1,2020.2.5,Win32,60
,,,,z,2.45859,0,251,251,251,1,flowers/images/312.jpg,flowers/images/185.jpg,252,Dasha Pavlovska,001,2020-11-19_14h42.22.576,test1,2020.2.5,Win32,60
,,,,m,0.99195,0,252,252,252,1,flowers/images/256.jpg,flowers/images/112.jpg,253,Dasha Pavlovska,001,2020-11-19_14h42.22.576,test1,2020.2.5,Win32,60
,,,,m,1.22248,0,253,253,253,1,flowers/images/26.jpg,flowers/images/261.jpg,254,Dasha Pavlovska,001,2020-11-19_14h42.22.576,test1,2020.2.5,Win32,60
,,,,m,1.90325,0,254,254,254,1,flowers/images/51.jpg,flowers/images/106.jpg,255,Dasha Pavlovska,001,2020-11-19_14h42.22.576,test1,2020.2.5,Win32,60
,,,,z,0.795865,0,255,255,255,1,flowers/images/371.jpg,flowers/images/160.jpg,256,Dasha Pavlovska,001,2020-11-19_14h42.22.576,test1,2020.2.5,Win32,60
,,,,m,1.13796,0,256,256,256,1,flowers/images/59.jpg,flowers/images/257.jpg,257,Dasha Pavlovska,001,2020-11-19_14h42.22.576,test1,2020.2.5,Win32,60
,,,,z,1.57069,0,257,257,257,1,flowers/images/347.jpg,flowers/images/190.jpg,258,Dasha Pavlovska,001,2020-11-19_14h42.22.576,test1,2020.2.5,Win32,60
,,,,m,1.82702,0,258,258,258,1,flowers/images/8.jpg,flowers/images/209.jpg,259,Dasha Pavlovska,001,2020-11-19_14h42.22.576,test1,2020.2.5,Win32,60
,,,,z,1.022405,0,259,259,259,1,flowers/images/278.jpg,flowers/images/31.jpg,260,Dasha Pavlovska,001,2020-11-19_14h42.22.576,test1,2020.2.5,Win32,60
,,,,z,1.217735,0,260,260,260,1,flowers/images/262.jpg,flowers/images/325.jpg,261,Dasha Pavlovska,001,2020-11-19_14h42.22.576,test1,2020.2.5,Win32,60
,,,,m,2.38443,0,261,261,261,1,flowers/images/273.jpg,flowers/images/83.jpg,262,Dasha Pavlovska,001,2020-11-19_14h42.22.576,test1,2020.2.5,Win32,60
,,,,m,1.22487,0,262,262,262,1,flowers/images/52.jpg,flowers/images/17.jpg,263,Dasha Pavlovska,001,2020-11-19_14h42.22.576,test1,2020.2.5,Win32,60
,,,,z,1.16039,0,263,263,263,1,flowers/images/243.jpg,flowers/images/27.jpg,264,Dasha Pavlovska,001,2020-11-19_14h42.22.576,test1,2020.2.5,Win32,60
,,,,m,1.571405,0,264,264,264,1,flowers/images/175.jpg,flowers/images/192.jpg,265,Dasha Pavlovska,001,2020-11-19_14h42.22.576,test1,2020.2.5,Win32,60
,,,,z,1.80082,0,265,265,265,1,flowers/images/53.jpg,flowers/images/199.jpg,266,Dasha Pavlovska,001,2020-11-19_14h42.22.576,test1,2020.2.5,Win32,60
,,,,m,1.41712,0,266,266,266,1,flowers/images/316.jpg,flowers/images/381.jpg,267,Dasha Pavlovska,001,2020-11-19_14h42.22.576,test1,2020.2.5,Win32,60
,,,,m,2.502785,0,267,267,267,1,flowers/images/249.jpg,flowers/images/213.jpg,268,Dasha Pavlovska,001,2020-11-19_14h42.22.576,test1,2020.2.5,Win32,60
,,,,z,3.184315,0,268,268,268,1,flowers/images/70.jpg,flowers/images/60.jpg,269,Dasha Pavlovska,001,2020-11-19_14h42.22.576,test1,2020.2.5,Win32,60
,,,,m,2.067615,0,269,269,269,1,flowers/images/300.jpg,flowers/images/386.jpg,270,Dasha Pavlovska,001,2020-11-19_14h42.22.576,test1,2020.2.5,Win32,60
,,,,z,1.43104,0,270,270,270,1,flowers/images/162.jpg,flowers/images/149.jpg,271,Dasha Pavlovska,001,2020-11-19_14h42.22.576,test1,2020.2.5,Win32,60
,,,,z,2.611535,0,271,271,271,1,flowers/images/146.jpg,flowers/images/336.jpg,272,Dasha Pavlovska,001,2020-11-19_14h42.22.576,test1,2020.2.5,Win32,60
,,,,m,2.68028,0,272,272,272,1,flowers/images/115.jpg,flowers/images/120.jpg,273,Dasha Pavlovska,001,2020-11-19_14h42.22.576,test1,2020.2.5,Win32,60
,,,,z,1.00175,0,273,273,273,1,flowers/images/311.jpg,flowers/images/123.jpg,274,Dasha Pavlovska,001,2020-11-19_14h42.22.576,test1,2020.2.5,Win32,60
,,,,z,0.952185,0,274,274,274,1,flowers/images/33.jpg,flowers/images/146.jpg,275,Dasha Pavlovska,001,2020-11-19_14h42.22.576,test1,2020.2.5,Win32,60
,,,,z,5.83334,0,275,275,275,1,flowers/images/78.jpg,flowers/images/352.jpg,276,Dasha Pavlovska,001,2020-11-19_14h42.22.576,test1,2020.2.5,Win32,60
,,,,m,1.83718,0,276,276,276,1,flowers/images/43.jpg,flowers/images/50.jpg,277,Dasha Pavlovska,001,2020-11-19_14h42.22.576,test1,2020.2.5,Win32,60
,,,,z,1.017625,0,277,277,277,1,flowers/images/373.jpg,flowers/images/78.jpg,278,Dasha Pavlovska,001,2020-11-19_14h42.22.576,test1,2020.2.5,Win32,60
,,,,z,1.018485,0,278,278,278,1,flowers/images/233.jpg,flowers/images/134.jpg,279,Dasha Pavlovska,001,2020-11-19_14h42.22.576,test1,2020.2.5,Win32,60
,,,,z,1.156535,0,279,279,279,1,flowers/images/386.jpg,flowers/images/390.jpg,280,Dasha Pavlovska,001,2020-11-19_14h42.22.576,test1,2020.2.5,Win32,60
,,,,m,1.01875,0,280,280,280,1,flowers/images/205.jpg,flowers/images/388.jpg,281,Dasha Pavlovska,001,2020-11-19_14h42.22.576,test1,2020.2.5,Win32,60
,,,,m,1.65555,0,281,281,281,1,flowers/images/130.jpg,flowers/images/48.jpg,282,Dasha Pavlovska,001,2020-11-19_14h42.22.576,test1,2020.2.5,Win32,60
,,,,m,0.8566,0,282,282,282,1,flowers/images/187.jpg,flowers/images/253.jpg,283,Dasha Pavlovska,001,2020-11-19_14h42.22.576,test1,2020.2.5,Win32,60
,,,,m,1.56208,0,283,283,283,1,flowers/images/232.jpg,flowers/images/141.jpg,284,Dasha Pavlovska,001,2020-11-19_14h42.22.576,test1,2020.2.5,Win32,60
,,,,m,1.50622,0,284,284,284,1,flowers/images/253.jpg,flowers/images/71.jpg,285,Dasha Pavlovska,001,2020-11-19_14h42.22.576,test1,2020.2.5,Win32,60
,,,,z,1.030705,0,285,285,285,1,flowers/images/332.jpg,flowers/images/322.jpg,286,Dasha Pavlovska,001,2020-11-19_14h42.22.576,test1,2020.2.5,Win32,60
,,,,z,4.22396,0,286,286,286,1,flowers/images/103.jpg,flowers/images/182.jpg,287,Dasha Pavlovska,001,2020-11-19_14h42.22.576,test1,2020.2.5,Win32,60
,,,,z,1.54743,0,287,287,287,1,flowers/images/271.jpg,flowers/images/103.jpg,288,Dasha Pavlovska,001,2020-11-19_14h42.22.576,test1,2020.2.5,Win32,60
,,,,m,0.90079,0,288,288,288,1,flowers/images/63.jpg,flowers/images/227.jpg,289,Dasha Pavlovska,001,2020-11-19_14h42.22.576,test1,2020.2.5,Win32,60
,,,,m,0.99753,0,289,289,289,1,flowers/images/382.jpg,flowers/images/359.jpg,290,Dasha Pavlovska,001,2020-11-19_14h42.22.576,test1,2020.2.5,Win32,60
,,,,m,1.27143,0,290,290,290,1,flowers/images/252.jpg,flowers/images/87.jpg,291,Dasha Pavlovska,001,2020-11-19_14h42.22.576,test1,2020.2.5,Win32,60
,,,,z,1.18415,0,291,291,291,1,flowers/images/101.jpg,flowers/images/196.jpg,292,Dasha Pavlovska,001,2020-11-19_14h42.22.576,test1,2020.2.5,Win32,60
,,,,m,1.167835,0,292,292,292,1,flowers/images/104.jpg,flowers/images/270.jpg,293,Dasha Pavlovska,001,2020-11-19_14h42.22.576,test1,2020.2.5,Win32,60
,,,,z,0.886395,0,293,293,293,1,flowers/images/270.jpg,flowers/images/108.jpg,294,Dasha Pavlovska,001,2020-11-19_14h42.22.576,test1,2020.2.5,Win32,60
,,,,z,1.64723,0,294,294,294,1,flowers/images/0.jpg,flowers/images/143.jpg,295,Dasha Pavlovska,001,2020-11-19_14h42.22.576,test1,2020.2.5,Win32,60
,,,,z,3.48688,0,295,295,295,1,flowers/images/348.jpg,flowers/images/276.jpg,296,Dasha Pavlovska,001,2020-11-19_14h42.22.576,test1,2020.2.5,Win32,60
,,,,m,2.27795,0,296,296,296,1,flowers/images/251.jpg,flowers/images/55.jpg,297,Dasha Pavlovska,001,2020-11-19_14h42.22.576,test1,2020.2.5,Win32,60
,,,,z,1.25801,0,297,297,297,1,flowers/images/119.jpg,flowers/images/43.jpg,298,Dasha Pavlovska,001,2020-11-19_14h42.22.576,test1,2020.2.5,Win32,60
,,,,m,1.154625,0,298,298,298,1,flowers/images/158.jpg,flowers/images/46.jpg,299,Dasha Pavlovska,001,2020-11-19_14h42.22.576,test1,2020.2.5,Win32,60
,,,,z,0.839055,0,299,299,299,1,flowers/images/297.jpg,flowers/images/205.jpg,300,Dasha Pavlovska,001,2020-11-19_14h42.22.576,test1,2020.2.5,Win32,60
,,,,m,1.89744,0,300,300,300,1,flowers/images/25.jpg,flowers/images/54.jpg,301,Dasha Pavlovska,001,2020-11-19_14h42.22.576,test1,2020.2.5,Win32,60
,,,,m,1.54504,0,301,301,301,1,flowers/images/67.jpg,flowers/images/331.jpg,302,Dasha Pavlovska,001,2020-11-19_14h42.22.576,test1,2020.2.5,Win32,60
,,,,z,1.24682,0,302,302,302,1,flowers/images/366.jpg,flowers/images/372.jpg,303,Dasha Pavlovska,001,2020-11-19_14h42.22.576,test1,2020.2.5,Win32,60
,,,,m,3.77351,0,303,303,303,1,flowers/images/4.jpg,flowers/images/220.jpg,304,Dasha Pavlovska,001,2020-11-19_14h42.22.576,test1,2020.2.5,Win32,60
,,,,m,2.845265,0,304,304,304,1,flowers/images/90.jpg,flowers/images/148.jpg,305,Dasha Pavlovska,001,2020-11-19_14h42.22.576,test1,2020.2.5,Win32,60
,,,,m,1.283565,0,305,305,305,1,flowers/images/198.jpg,flowers/images/380.jpg,306,Dasha Pavlovska,001,2020-11-19_14h42.22.576,test1,2020.2.5,Win32,60
,,,,z,2.03487,0,306,306,306,1,flowers/images/375.jpg,flowers/images/362.jpg,307,Dasha Pavlovska,001,2020-11-19_14h42.22.576,test1,2020.2.5,Win32,60
,,,,z,1.402795,0,307,307,307,1,flowers/images/372.jpg,flowers/images/98.jpg,308,Dasha Pavlovska,001,2020-11-19_14h42.22.576,test1,2020.2.5,Win32,60
,,,,z,1.4843,0,308,308,308,1,flowers/images/364.jpg,flowers/images/12.jpg,309,Dasha Pavlovska,001,2020-11-19_14h42.22.576,test1,2020.2.5,Win32,60
,,,,m,1.986625,0,309,309,309,1,flowers/images/176.jpg,flowers/images/316.jpg,310,Dasha Pavlovska,001,2020-11-19_14h42.22.576,test1,2020.2.5,Win32,60
,,,,m,0.99959,0,310,310,310,1,flowers/images/48.jpg,flowers/images/75.jpg,311,Dasha Pavlovska,001,2020-11-19_14h42.22.576,test1,2020.2.5,Win32,60
,,,,m,1.5008,0,311,311,311,1,flowers/images/188.jpg,flowers/images/8.jpg,312,Dasha Pavlovska,001,2020-11-19_14h42.22.576,test1,2020.2.5,Win32,60
,,,,m,2.167865,0,312,312,312,1,flowers/images/288.jpg,flowers/images/251.jpg,313,Dasha Pavlovska,001,2020-11-19_14h42.22.576,test1,2020.2.5,Win32,60
,,,,z,0.91855,0,313,313,313,1,flowers/images/349.jpg,flowers/images/282.jpg,314,Dasha Pavlovska,001,2020-11-19_14h42.22.576,test1,2020.2.5,Win32,60
,,,,m,2.033835,0,314,314,314,1,flowers/images/135.jpg,flowers/images/172.jpg,315,Dasha Pavlovska,001,2020-11-19_14h42.22.576,test1,2020.2.5,Win32,60
,,,,m,1.3438,0,315,315,315,1,flowers/images/283.jpg,flowers/images/139.jpg,316,Dasha Pavlovska,001,2020-11-19_14h42.22.576,test1,2020.2.5,Win32,60
,,,,z,1.373975,0,316,316,316,1,flowers/images/301.jpg,flowers/images/102.jpg,317,Dasha Pavlovska,001,2020-11-19_14h42.22.576,test1,2020.2.5,Win32,60
,,,,m,3.869315,0,317,317,317,1,flowers/images/164.jpg,flowers/images/392.jpg,318,Dasha Pavlovska,001,2020-11-19_14h42.22.576,test1,2020.2.5,Win32,60
,,,,z,2.825795,0,318,318,318,1,flowers/images/385.jpg,flowers/images/244.jpg,319,Dasha Pavlovska,001,2020-11-19_14h42.22.576,test1,2020.2.5,Win32,60
,,,,z,1.69343,0,319,319,319,1,flowers/images/137.jpg,flowers/images/104.jpg,320,Dasha Pavlovska,001,2020-11-19_14h42.22.576,test1,2020.2.5,Win32,60
,,,,m,1.342105,0,320,320,320,1,flowers/images/23.jpg,flowers/images/157.jpg,321,Dasha Pavlovska,001,2020-11-19_14h42.22.576,test1,2020.2.5,Win32,60
,,,,m,2.820605,0,321,321,321,1,flowers/images/310.jpg,flowers/images/238.jpg,322,Dasha Pavlovska,001,2020-11-19_14h42.22.576,test1,2020.2.5,Win32,60
,,,,z,1.409195,0,322,322,322,1,flowers/images/215.jpg,flowers/images/222.jpg,323,Dasha Pavlovska,001,2020-11-19_14h42.22.576,test1,2020.2.5,Win32,60
,,,,m,1.63788,0,323,323,323,1,flowers/images/244.jpg,flowers/images/274.jpg,324,Dasha Pavlovska,001,2020-11-19_14h42.22.576,test1,2020.2.5,Win32,60
,,,,m,1.299255,0,324,324,324,1,flowers/images/313.jpg,flowers/images/329.jpg,325,Dasha Pavlovska,001,2020-11-19_14h42.22.576,test1,2020.2.5,Win32,60
,,,,z,2.86883,0,325,325,325,1,flowers/images/207.jpg,flowers/images/188.jpg,326,Dasha Pavlovska,001,2020-11-19_14h42.22.576,test1,2020.2.5,Win32,60
,,,,m,1.01748,0,326,326,326,1,flowers/images/265.jpg,flowers/images/351.jpg,327,Dasha Pavlovska,001,2020-11-19_14h42.22.576,test1,2020.2.5,Win32,60
,,,,m,1.617675,0,327,327,327,1,flowers/images/248.jpg,flowers/images/239.jpg,328,Dasha Pavlovska,001,2020-11-19_14h42.22.576,test1,2020.2.5,Win32,60
,,,,m,1.31705,0,328,328,328,1,flowers/images/204.jpg,flowers/images/225.jpg,329,Dasha Pavlovska,001,2020-11-19_14h42.22.576,test1,2020.2.5,Win32,60
,,,,m,2.38068,0,329,329,329,1,flowers/images/13.jpg,flowers/images/119.jpg,330,Dasha Pavlovska,001,2020-11-19_14h42.22.576,test1,2020.2.5,Win32,60
,,,,z,8.91333,0,330,330,330,1,flowers/images/370.jpg,flowers/images/39.jpg,331,Dasha Pavlovska,001,2020-11-19_14h42.22.576,test1,2020.2.5,Win32,60
,,,,z,5.98037,0,331,331,331,1,flowers/images/397.jpg,flowers/images/69.jpg,332,Dasha Pavlovska,001,2020-11-19_14h42.22.576,test1,2020.2.5,Win32,60
,,,,m,1.27455,0,332,332,332,1,flowers/images/393.jpg,flowers/images/399.jpg,333,Dasha Pavlovska,001,2020-11-19_14h42.22.576,test1,2020.2.5,Win32,60
,,,,m,1.30037,0,333,333,333,1,flowers/images/363.jpg,flowers/images/74.jpg,334,Dasha Pavlovska,001,2020-11-19_14h42.22.576,test1,2020.2.5,Win32,60
,,,,z,2.530075,0,334,334,334,1,flowers/images/254.jpg,flowers/images/174.jpg,335,Dasha Pavlovska,001,2020-11-19_14h42.22.576,test1,2020.2.5,Win32,60
,,,,m,1.201805,0,335,335,335,1,flowers/images/139.jpg,flowers/images/70.jpg,336,Dasha Pavlovska,001,2020-11-19_14h42.22.576,test1,2020.2.5,Win32,60
,,,,m,2.91645,0,336,336,336,1,flowers/images/95.jpg,flowers/images/315.jpg,337,Dasha Pavlovska,001,2020-11-19_14h42.22.576,test1,2020.2.5,Win32,60
,,,,z,0.84021,0,337,337,337,1,flowers/images/294.jpg,flowers/images/334.jpg,338,Dasha Pavlovska,001,2020-11-19_14h42.22.576,test1,2020.2.5,Win32,60
,,,,z,1.21282,0,338,338,338,1,flowers/images/174.jpg,flowers/images/171.jpg,339,Dasha Pavlovska,001,2020-11-19_14h42.22.576,test1,2020.2.5,Win32,60
,,,,m,1.18701,0,339,339,339,1,flowers/images/57.jpg,flowers/images/326.jpg,340,Dasha Pavlovska,001,2020-11-19_14h42.22.576,test1,2020.2.5,Win32,60
,,,,m,2.01367,0,340,340,340,1,flowers/images/246.jpg,flowers/images/82.jpg,341,Dasha Pavlovska,001,2020-11-19_14h42.22.576,test1,2020.2.5,Win32,60
,,,,m,1.33425,0,341,341,341,1,flowers/images/16.jpg,flowers/images/45.jpg,342,Dasha Pavlovska,001,2020-11-19_14h42.22.576,test1,2020.2.5,Win32,60
,,,,z,1.76836,0,342,342,342,1,flowers/images/380.jpg,flowers/images/150.jpg,343,Dasha Pavlovska,001,2020-11-19_14h42.22.576,test1,2020.2.5,Win32,60
,,,,m,1.72481,0,343,343,343,1,flowers/images/109.jpg,flowers/images/350.jpg,344,Dasha Pavlovska,001,2020-11-19_14h42.22.576,test1,2020.2.5,Win32,60
,,,,m,1.142725,0,344,344,344,1,flowers/images/223.jpg,flowers/images/366.jpg,345,Dasha Pavlovska,001,2020-11-19_14h42.22.576,test1,2020.2.5,Win32,60
,,,,z,1.534225,0,345,345,345,1,flowers/images/60.jpg,flowers/images/194.jpg,346,Dasha Pavlovska,001,2020-11-19_14h42.22.576,test1,2020.2.5,Win32,60
,,,,m,0.984565,0,346,346,346,1,flowers/images/268.jpg,flowers/images/332.jpg,347,Dasha Pavlovska,001,2020-11-19_14h42.22.576,test1,2020.2.5,Win32,60
,,,,z,3.53929,0,347,347,347,1,flowers/images/388.jpg,flowers/images/319.jpg,348,Dasha Pavlovska,001,2020-11-19_14h42.22.576,test1,2020.2.5,Win32,60
,,,,z,1.68135,0,348,348,348,1,flowers/images/356.jpg,flowers/images/337.jpg,349,Dasha Pavlovska,001,2020-11-19_14h42.22.576,test1,2020.2.5,Win32,60
,,,,m,1.683455,0,349,349,349,1,flowers/images/384.jpg,flowers/images/344.jpg,350,Dasha Pavlovska,001,2020-11-19_14h42.22.576,test1,2020.2.5,Win32,60
,,,,m,2.509375,0,350,350,350,1,flowers/images/333.jpg,flowers/images/346.jpg,351,Dasha Pavlovska,001,2020-11-19_14h42.22.576,test1,2020.2.5,Win32,60
,,,,m,2.525405,0,351,351,351,1,flowers/images/24.jpg,flowers/images/116.jpg,352,Dasha Pavlovska,001,2020-11-19_14h42.22.576,test1,2020.2.5,Win32,60
,,,,m,2.32276,0,352,352,352,1,flowers/images/220.jpg,flowers/images/235.jpg,353,Dasha Pavlovska,001,2020-11-19_14h42.22.576,test1,2020.2.5,Win32,60
,,,,m,2.42363,0,353,353,353,1,flowers/images/269.jpg,flowers/images/198.jpg,354,Dasha Pavlovska,001,2020-11-19_14h42.22.576,test1,2020.2.5,Win32,60
,,,,m,2.08034,0,354,354,354,1,flowers/images/107.jpg,flowers/images/1.jpg,355,Dasha Pavlovska,001,2020-11-19_14h42.22.576,test1,2020.2.5,Win32,60
,,,,z,2.14793,0,355,355,355,1,flowers/images/314.jpg,flowers/images/147.jpg,356,Dasha Pavlovska,001,2020-11-19_14h42.22.576,test1,2020.2.5,Win32,60
,,,,m,1.81816,0,356,356,356,1,flowers/images/117.jpg,flowers/images/258.jpg,357,Dasha Pavlovska,001,2020-11-19_14h42.22.576,test1,2020.2.5,Win32,60
,,,,m,0.98095,0,357,357,357,1,flowers/images/41.jpg,flowers/images/214.jpg,358,Dasha Pavlovska,001,2020-11-19_14h42.22.576,test1,2020.2.5,Win32,60
,,,,z,1.35453,0,358,358,358,1,flowers/images/306.jpg,flowers/images/118.jpg,359,Dasha Pavlovska,001,2020-11-19_14h42.22.576,test1,2020.2.5,Win32,60
,,,,z,1.462415,0,359,359,359,1,flowers/images/299.jpg,flowers/images/40.jpg,360,Dasha Pavlovska,001,2020-11-19_14h42.22.576,test1,2020.2.5,Win32,60
,,,,z,1.509355,0,360,360,360,1,flowers/images/50.jpg,flowers/images/291.jpg,361,Dasha Pavlovska,001,2020-11-19_14h42.22.576,test1,2020.2.5,Win32,60
,,,,z,0.885075,0,361,361,361,1,flowers/images/238.jpg,flowers/images/129.jpg,362,Dasha Pavlovska,001,2020-11-19_14h42.22.576,test1,2020.2.5,Win32,60
,,,,z,2.634565,0,362,362,362,1,flowers/images/30.jpg,flowers/images/136.jpg,363,Dasha Pavlovska,001,2020-11-19_14h42.22.576,test1,2020.2.5,Win32,60
,,,,m,1.42832,0,363,363,363,1,flowers/images/211.jpg,flowers/images/306.jpg,364,Dasha Pavlovska,001,2020-11-19_14h42.22.576,test1,2020.2.5,Win32,60
,,,,m,1.744065,0,364,364,364,1,flowers/images/227.jpg,flowers/images/57.jpg,365,Dasha Pavlovska,001,2020-11-19_14h42.22.576,test1,2020.2.5,Win32,60
,,,,z,1.59213,0,365,365,365,1,flowers/images/242.jpg,flowers/images/61.jpg,366,Dasha Pavlovska,001,2020-11-19_14h42.22.576,test1,2020.2.5,Win32,60
,,,,z,1.507885,0,366,366,366,1,flowers/images/387.jpg,flowers/images/263.jpg,367,Dasha Pavlovska,001,2020-11-19_14h42.22.576,test1,2020.2.5,Win32,60
,,,,z,1.736405,0,367,367,367,1,flowers/images/193.jpg,flowers/images/367.jpg,368,Dasha Pavlovska,001,2020-11-19_14h42.22.576,test1,2020.2.5,Win32,60
,,,,m,1.94849,0,368,368,368,1,flowers/images/231.jpg,flowers/images/18.jpg,369,Dasha Pavlovska,001,2020-11-19_14h42.22.576,test1,2020.2.5,Win32,60
,,,,m,2.04765,0,369,369,369,1,flowers/images/154.jpg,flowers/images/32.jpg,370,Dasha Pavlovska,001,2020-11-19_14h42.22.576,test1,2020.2.5,Win32,60
,,,,m,1.940465,0,370,370,370,1,flowers/images/79.jpg,flowers/images/301.jpg,371,Dasha Pavlovska,001,2020-11-19_14h42.22.576,test1,2020.2.5,Win32,60
,,,,m,1.150215,0,371,371,371,1,flowers/images/263.jpg,flowers/images/210.jpg,372,Dasha Pavlovska,001,2020-11-19_14h42.22.576,test1,2020.2.5,Win32,60
,,,,m,0.901085,0,372,372,372,1,flowers/images/383.jpg,flowers/images/354.jpg,373,Dasha Pavlovska,001,2020-11-19_14h42.22.576,test1,2020.2.5,Win32,60
,,,,z,1.331705,0,373,373,373,1,flowers/images/290.jpg,flowers/images/212.jpg,374,Dasha Pavlovska,001,2020-11-19_14h42.22.576,test1,2020.2.5,Win32,60
,,,,z,1.081915,0,374,374,374,1,flowers/images/206.jpg,flowers/images/397.jpg,375,Dasha Pavlovska,001,2020-11-19_14h42.22.576,test1,2020.2.5,Win32,60
,,,,m,1.721525,0,375,375,375,1,flowers/images/317.jpg,flowers/images/297.jpg,376,Dasha Pavlovska,001,2020-11-19_14h42.22.576,test1,2020.2.5,Win32,60
,,,,z,1.729305,0,376,376,376,1,flowers/images/329.jpg,flowers/images/255.jpg,377,Dasha Pavlovska,001,2020-11-19_14h42.22.576,test1,2020.2.5,Win32,60
,,,,z,1.394875,0,377,377,377,1,flowers/images/225.jpg,flowers/images/91.jpg,378,Dasha Pavlovska,001,2020-11-19_14h42.22.576,test1,2020.2.5,Win32,60
,,,,z,1.72743,0,378,378,378,1,flowers/images/11.jpg,flowers/images/256.jpg,379,Dasha Pavlovska,001,2020-11-19_14h42.22.576,test1,2020.2.5,Win32,60
,,,,z,1.116935,0,379,379,379,1,flowers/images/234.jpg,flowers/images/64.jpg,380,Dasha Pavlovska,001,2020-11-19_14h42.22.576,test1,2020.2.5,Win32,60
,,,,z,1.30534,0,380,380,380,1,flowers/images/342.jpg,flowers/images/26.jpg,381,Dasha Pavlovska,001,2020-11-19_14h42.22.576,test1,2020.2.5,Win32,60
,,,,z,1.02975,0,381,381,381,1,flowers/images/391.jpg,flowers/images/286.jpg,382,Dasha Pavlovska,001,2020-11-19_14h42.22.576,test1,2020.2.5,Win32,60
,,,,m,1.103385,0,382,382,382,1,flowers/images/221.jpg,flowers/images/268.jpg,383,Dasha Pavlovska,001,2020-11-19_14h42.22.576,test1,2020.2.5,Win32,60
,,,,z,0.817745,0,383,383,383,1,flowers/images/210.jpg,flowers/images/84.jpg,384,Dasha Pavlovska,001,2020-11-19_14h42.22.576,test1,2020.2.5,Win32,60
,,,,z,0.867005,0,384,384,384,1,flowers/images/138.jpg,flowers/images/77.jpg,385,Dasha Pavlovska,001,2020-11-19_14h42.22.576,test1,2020.2.5,Win32,60
,,,,z,1.06729,0,385,385,385,1,flowers/images/315.jpg,flowers/images/269.jpg,386,Dasha Pavlovska,001,2020-11-19_14h42.22.576,test1,2020.2.5,Win32,60
,,,,m,2.912915,0,386,386,386,1,flowers/images/308.jpg,flowers/images/265.jpg,387,Dasha Pavlovska,001,2020-11-19_14h42.22.576,test1,2020.2.5,Win32,60
,,,,z,2.077935,0,387,387,387,1,flowers/images/88.jpg,flowers/images/56.jpg,388,Dasha Pavlovska,001,2020-11-19_14h42.22.576,test1,2020.2.5,Win32,60
,,,,z,2.51838,0,388,388,388,1,flowers/images/102.jpg,flowers/images/126.jpg,389,Dasha Pavlovska,001,2020-11-19_14h42.22.576,test1,2020.2.5,Win32,60
,,,,m,1.49652,0,389,389,389,1,flowers/images/132.jpg,flowers/images/389.jpg,390,Dasha Pavlovska,001,2020-11-19_14h42.22.576,test1,2020.2.5,Win32,60
,,,,m,3.236995,0,390,390,390,1,flowers/images/186.jpg,flowers/images/144.jpg,391,Dasha Pavlovska,001,2020-11-19_14h42.22.576,test1,2020.2.5,Win32,60
,,,,m,1.17052,0,391,391,391,1,flowers/images/284.jpg,flowers/images/92.jpg,392,Dasha Pavlovska,001,2020-11-19_14h42.22.576,test1,2020.2.5,Win32,60
,,,,m,1.513685,0,392,392,392,1,flowers/images/396.jpg,flowers/images/24.jpg,393,Dasha Pavlovska,001,2020-11-19_14h42.22.576,test1,2020.2.5,Win32,60
,,,,m,1.33959,0,393,393,393,1,flowers/images/374.jpg,flowers/images/287.jpg,394,Dasha Pavlovska,001,2020-11-19_14h42.22.576,test1,2020.2.5,Win32,60
,,,,z,0.84687,0,394,394,394,1,flowers/images/140.jpg,flowers/images/267.jpg,395,Dasha Pavlovska,001,2020-11-19_14h42.22.576,test1,2020.2.5,Win32,60
,,,,m,2.77054,0,395,395,395,1,flowers/images/267.jpg,flowers/images/343.jpg,396,Dasha Pavlovska,001,2020-11-19_14h42.22.576,test1,2020.2.5,Win32,60
,,,,m,1.719375,0,396,396,396,1,flowers/images/286.jpg,flowers/images/35.jpg,397,Dasha Pavlovska,001,2020-11-19_14h42.22.576,test1,2020.2.5,Win32,60
,,,,m,0.95184,0,397,397,397,1,flowers/images/143.jpg,flowers/images/391.jpg,398,Dasha Pavlovska,001,2020-11-19_14h42.22.576,test1,2020.2.5,Win32,60
,,,,z,1.20984,0,398,398,398,1,flowers/images/196.jpg,flowers/images/155.jpg,399,Dasha Pavlovska,001,2020-11-19_14h42.22.576,test1,2020.2.5,Win32,60
,,,,z,0.78751,0,399,399,399,1,flowers/images/281.jpg,flowers/images/394.jpg,400,Dasha Pavlovska,001,2020-11-19_14h42.22.576,test1,2020.2.5,Win32,60
