key_resp.keys,key_resp.rt,key_resp_3.keys,key_resp_3.rt,key_resp_2.keys,key_resp_2.rt,trials.thisRepN,trials.thisTrialN,trials.thisN,trials.thisIndex,trials.ran,image_left,image_right,trial_num,participant,session,date,expName,psychopyVersion,OS,frameRate,key_resp_4.keys,key_resp_4.rt,trials_2.thisRepN,trials_2.thisTrialN,trials_2.thisN,trials_2.thisIndex,trials_2.ran
space,10.51039,space,17.9862,m,3.35597,0,0,0,0,1,flowers/images/125.jpg,flowers/images/165.jpg,1,GZ,001,2020-11-21_14h45.23.143,test1,2020.2.5,Win32,60,,,,,,,
,,,,z,1.93965,0,1,1,1,1,flowers/images/168.jpg,flowers/images/195.jpg,2,GZ,001,2020-11-21_14h45.23.143,test1,2020.2.5,Win32,60,,,,,,,
,,,,m,2.74636,0,2,2,2,1,flowers/images/114.jpg,flowers/images/131.jpg,3,GZ,001,2020-11-21_14h45.23.143,test1,2020.2.5,Win32,60,,,,,,,
,,,,z,1.81197,0,3,3,3,1,flowers/images/110.jpg,flowers/images/241.jpg,4,GZ,001,2020-11-21_14h45.23.143,test1,2020.2.5,Win32,60,,,,,,,
,,,,z,1.560845,0,4,4,4,1,flowers/images/157.jpg,flowers/images/170.jpg,5,GZ,001,2020-11-21_14h45.23.143,test1,2020.2.5,Win32,60,,,,,,,
,,,,m,1.22772,0,5,5,5,1,flowers/images/291.jpg,flowers/images/302.jpg,6,GZ,001,2020-11-21_14h45.23.143,test1,2020.2.5,Win32,60,,,,,,,
,,,,z,1.822765,0,6,6,6,1,flowers/images/335.jpg,flowers/images/272.jpg,7,GZ,001,2020-11-21_14h45.23.143,test1,2020.2.5,Win32,60,,,,,,,
,,,,z,1.516405,0,7,7,7,1,flowers/images/122.jpg,flowers/images/72.jpg,8,GZ,001,2020-11-21_14h45.23.143,test1,2020.2.5,Win32,60,,,,,,,
,,,,z,2.93348,0,8,8,8,1,flowers/images/240.jpg,flowers/images/67.jpg,9,GZ,001,2020-11-21_14h45.23.143,test1,2020.2.5,Win32,60,,,,,,,
,,,,z,1.714225,0,9,9,9,1,flowers/images/324.jpg,flowers/images/180.jpg,10,GZ,001,2020-11-21_14h45.23.143,test1,2020.2.5,Win32,60,,,,,,,
,,,,m,5.266435,0,10,10,10,1,flowers/images/148.jpg,flowers/images/275.jpg,11,GZ,001,2020-11-21_14h45.23.143,test1,2020.2.5,Win32,60,,,,,,,
,,,,m,1.13244,0,11,11,11,1,flowers/images/61.jpg,flowers/images/2.jpg,12,GZ,001,2020-11-21_14h45.23.143,test1,2020.2.5,Win32,60,,,,,,,
,,,,z,1.770505,0,12,12,12,1,flowers/images/20.jpg,flowers/images/378.jpg,13,GZ,001,2020-11-21_14h45.23.143,test1,2020.2.5,Win32,60,,,,,,,
,,,,z,0.887485,0,13,13,13,1,flowers/images/181.jpg,flowers/images/363.jpg,14,GZ,001,2020-11-21_14h45.23.143,test1,2020.2.5,Win32,60,,,,,,,
,,,,m,2.07071,0,14,14,14,1,flowers/images/87.jpg,flowers/images/187.jpg,15,GZ,001,2020-11-21_14h45.23.143,test1,2020.2.5,Win32,60,,,,,,,
,,,,m,1.15032,0,15,15,15,1,flowers/images/150.jpg,flowers/images/281.jpg,16,GZ,001,2020-11-21_14h45.23.143,test1,2020.2.5,Win32,60,,,,,,,
,,,,z,2.51971,0,16,16,16,1,flowers/images/112.jpg,flowers/images/176.jpg,17,GZ,001,2020-11-21_14h45.23.143,test1,2020.2.5,Win32,60,,,,,,,
,,,,z,1.297295,0,17,17,17,1,flowers/images/236.jpg,flowers/images/243.jpg,18,GZ,001,2020-11-21_14h45.23.143,test1,2020.2.5,Win32,60,,,,,,,
,,,,z,2.26982,0,18,18,18,1,flowers/images/133.jpg,flowers/images/247.jpg,19,GZ,001,2020-11-21_14h45.23.143,test1,2020.2.5,Win32,60,,,,,,,
,,,,m,1.76755,0,19,19,19,1,flowers/images/136.jpg,flowers/images/164.jpg,20,GZ,001,2020-11-21_14h45.23.143,test1,2020.2.5,Win32,60,,,,,,,
,,,,z,1.97271,0,20,20,20,1,flowers/images/185.jpg,flowers/images/211.jpg,21,GZ,001,2020-11-21_14h45.23.143,test1,2020.2.5,Win32,60,,,,,,,
,,,,m,3.04625,0,21,21,21,1,flowers/images/118.jpg,flowers/images/371.jpg,22,GZ,001,2020-11-21_14h45.23.143,test1,2020.2.5,Win32,60,,,,,,,
,,,,m,2.61191,0,22,22,22,1,flowers/images/177.jpg,flowers/images/5.jpg,23,GZ,001,2020-11-21_14h45.23.143,test1,2020.2.5,Win32,60,,,,,,,
,,,,m,2.13126,0,23,23,23,1,flowers/images/91.jpg,flowers/images/215.jpg,24,GZ,001,2020-11-21_14h45.23.143,test1,2020.2.5,Win32,60,,,,,,,
,,,,z,4.03846,0,24,24,24,1,flowers/images/277.jpg,flowers/images/11.jpg,25,GZ,001,2020-11-21_14h45.23.143,test1,2020.2.5,Win32,60,,,,,,,
,,,,m,1.34682,0,25,25,25,1,flowers/images/197.jpg,flowers/images/25.jpg,26,GZ,001,2020-11-21_14h45.23.143,test1,2020.2.5,Win32,60,,,,,,,
,,,,z,1.697225,0,26,26,26,1,flowers/images/131.jpg,flowers/images/63.jpg,27,GZ,001,2020-11-21_14h45.23.143,test1,2020.2.5,Win32,60,,,,,,,
,,,,z,1.63831,0,27,27,27,1,flowers/images/106.jpg,flowers/images/221.jpg,28,GZ,001,2020-11-21_14h45.23.143,test1,2020.2.5,Win32,60,,,,,,,
,,,,m,1.78176,0,28,28,28,1,flowers/images/295.jpg,flowers/images/307.jpg,29,GZ,001,2020-11-21_14h45.23.143,test1,2020.2.5,Win32,60,,,,,,,
,,,,z,1.929595,0,29,29,29,1,flowers/images/368.jpg,flowers/images/384.jpg,30,GZ,001,2020-11-21_14h45.23.143,test1,2020.2.5,Win32,60,,,,,,,
,,,,z,1.631295,0,30,30,30,1,flowers/images/96.jpg,flowers/images/140.jpg,31,GZ,001,2020-11-21_14h45.23.143,test1,2020.2.5,Win32,60,,,,,,,
,,,,m,1.316805,0,31,31,31,1,flowers/images/272.jpg,flowers/images/59.jpg,32,GZ,001,2020-11-21_14h45.23.143,test1,2020.2.5,Win32,60,,,,,,,
,,,,m,1.66344,0,32,32,32,1,flowers/images/389.jpg,flowers/images/110.jpg,33,GZ,001,2020-11-21_14h45.23.143,test1,2020.2.5,Win32,60,,,,,,,
,,,,m,1.51341,0,33,33,33,1,flowers/images/237.jpg,flowers/images/387.jpg,34,GZ,001,2020-11-21_14h45.23.143,test1,2020.2.5,Win32,60,,,,,,,
,,,,z,1.263165,0,34,34,34,1,flowers/images/35.jpg,flowers/images/142.jpg,35,GZ,001,2020-11-21_14h45.23.143,test1,2020.2.5,Win32,60,,,,,,,
,,,,z,2.299235,0,35,35,35,1,flowers/images/49.jpg,flowers/images/200.jpg,36,GZ,001,2020-11-21_14h45.23.143,test1,2020.2.5,Win32,60,,,,,,,
,,,,m,1.701265,0,36,36,36,1,flowers/images/142.jpg,flowers/images/328.jpg,37,GZ,001,2020-11-21_14h45.23.143,test1,2020.2.5,Win32,60,,,,,,,
,,,,m,1.48065,0,37,37,37,1,flowers/images/339.jpg,flowers/images/264.jpg,38,GZ,001,2020-11-21_14h45.23.143,test1,2020.2.5,Win32,60,,,,,,,
,,,,m,1.546125,0,38,38,38,1,flowers/images/394.jpg,flowers/images/266.jpg,39,GZ,001,2020-11-21_14h45.23.143,test1,2020.2.5,Win32,60,,,,,,,
,,,,m,2.596725,0,39,39,39,1,flowers/images/89.jpg,flowers/images/298.jpg,40,GZ,001,2020-11-21_14h45.23.143,test1,2020.2.5,Win32,60,,,,,,,
,,,,m,1.2176,0,40,40,40,1,flowers/images/325.jpg,flowers/images/47.jpg,41,GZ,001,2020-11-21_14h45.23.143,test1,2020.2.5,Win32,60,,,,,,,
,,,,m,4.469065,0,41,41,41,1,flowers/images/40.jpg,flowers/images/162.jpg,42,GZ,001,2020-11-21_14h45.23.143,test1,2020.2.5,Win32,60,,,,,,,
,,,,m,1.68139,0,42,42,42,1,flowers/images/266.jpg,flowers/images/181.jpg,43,GZ,001,2020-11-21_14h45.23.143,test1,2020.2.5,Win32,60,,,,,,,
,,,,m,2.633215,0,43,43,43,1,flowers/images/100.jpg,flowers/images/396.jpg,44,GZ,001,2020-11-21_14h45.23.143,test1,2020.2.5,Win32,60,,,,,,,
,,,,m,1.75487,0,44,44,44,1,flowers/images/144.jpg,flowers/images/231.jpg,45,GZ,001,2020-11-21_14h45.23.143,test1,2020.2.5,Win32,60,,,,,,,
,,,,m,2.463045,0,45,45,45,1,flowers/images/289.jpg,flowers/images/202.jpg,46,GZ,001,2020-11-21_14h45.23.143,test1,2020.2.5,Win32,60,,,,,,,
,,,,z,4.89795,0,46,46,46,1,flowers/images/178.jpg,flowers/images/86.jpg,47,GZ,001,2020-11-21_14h45.23.143,test1,2020.2.5,Win32,60,,,,,,,
,,,,z,1.203485,0,47,47,47,1,flowers/images/360.jpg,flowers/images/393.jpg,48,GZ,001,2020-11-21_14h45.23.143,test1,2020.2.5,Win32,60,,,,,,,
,,,,z,4.00439,0,48,48,48,1,flowers/images/108.jpg,flowers/images/288.jpg,49,GZ,001,2020-11-21_14h45.23.143,test1,2020.2.5,Win32,60,,,,,,,
,,,,m,1.22143,0,49,49,49,1,flowers/images/165.jpg,flowers/images/154.jpg,50,GZ,001,2020-11-21_14h45.23.143,test1,2020.2.5,Win32,60,,,,,,,
,,,,m,1.251995,0,50,50,50,1,flowers/images/27.jpg,flowers/images/121.jpg,51,GZ,001,2020-11-21_14h45.23.143,test1,2020.2.5,Win32,60,,,,,,,
,,,,m,4.02335,0,51,51,51,1,flowers/images/302.jpg,flowers/images/203.jpg,52,GZ,001,2020-11-21_14h45.23.143,test1,2020.2.5,Win32,60,,,,,,,
,,,,z,1.61579,0,52,52,52,1,flowers/images/255.jpg,flowers/images/42.jpg,53,GZ,001,2020-11-21_14h45.23.143,test1,2020.2.5,Win32,60,,,,,,,
,,,,m,2.10045,0,53,53,53,1,flowers/images/31.jpg,flowers/images/289.jpg,54,GZ,001,2020-11-21_14h45.23.143,test1,2020.2.5,Win32,60,,,,,,,
,,,,m,1.58321,0,54,54,54,1,flowers/images/66.jpg,flowers/images/246.jpg,55,GZ,001,2020-11-21_14h45.23.143,test1,2020.2.5,Win32,60,,,,,,,
,,,,z,0.96944,0,55,55,55,1,flowers/images/355.jpg,flowers/images/115.jpg,56,GZ,001,2020-11-21_14h45.23.143,test1,2020.2.5,Win32,60,,,,,,,
,,,,z,4.53702,0,56,56,56,1,flowers/images/241.jpg,flowers/images/345.jpg,57,GZ,001,2020-11-21_14h45.23.143,test1,2020.2.5,Win32,60,,,,,,,
,,,,z,4.20048,0,57,57,57,1,flowers/images/296.jpg,flowers/images/37.jpg,58,GZ,001,2020-11-21_14h45.23.143,test1,2020.2.5,Win32,60,,,,,,,
,,,,z,1.53234,0,58,58,58,1,flowers/images/235.jpg,flowers/images/373.jpg,59,GZ,001,2020-11-21_14h45.23.143,test1,2020.2.5,Win32,60,,,,,,,
,,,,m,2.59417,0,59,59,59,1,flowers/images/173.jpg,flowers/images/93.jpg,60,GZ,001,2020-11-21_14h45.23.143,test1,2020.2.5,Win32,60,,,,,,,
,,,,m,1.948295,0,60,60,60,1,flowers/images/331.jpg,flowers/images/88.jpg,61,GZ,001,2020-11-21_14h45.23.143,test1,2020.2.5,Win32,60,,,,,,,
,,,,m,1.757705,0,61,61,61,1,flowers/images/134.jpg,flowers/images/127.jpg,62,GZ,001,2020-11-21_14h45.23.143,test1,2020.2.5,Win32,60,,,,,,,
,,,,z,1.35684,0,62,62,62,1,flowers/images/285.jpg,flowers/images/201.jpg,63,GZ,001,2020-11-21_14h45.23.143,test1,2020.2.5,Win32,60,,,,,,,
,,,,z,4.6353,0,63,63,63,1,flowers/images/151.jpg,flowers/images/52.jpg,64,GZ,001,2020-11-21_14h45.23.143,test1,2020.2.5,Win32,60,,,,,,,
,,,,m,4.931815,0,64,64,64,1,flowers/images/208.jpg,flowers/images/186.jpg,65,GZ,001,2020-11-21_14h45.23.143,test1,2020.2.5,Win32,60,,,,,,,
,,,,m,1.283145,0,65,65,65,1,flowers/images/80.jpg,flowers/images/124.jpg,66,GZ,001,2020-11-21_14h45.23.143,test1,2020.2.5,Win32,60,,,,,,,
,,,,m,1.55353,0,66,66,66,1,flowers/images/303.jpg,flowers/images/347.jpg,67,GZ,001,2020-11-21_14h45.23.143,test1,2020.2.5,Win32,60,,,,,,,
,,,,z,2.915725,0,67,67,67,1,flowers/images/6.jpg,flowers/images/262.jpg,68,GZ,001,2020-11-21_14h45.23.143,test1,2020.2.5,Win32,60,,,,,,,
,,,,z,1.435125,0,68,68,68,1,flowers/images/85.jpg,flowers/images/20.jpg,69,GZ,001,2020-11-21_14h45.23.143,test1,2020.2.5,Win32,60,,,,,,,
,,,,z,2.13205,0,69,69,69,1,flowers/images/392.jpg,flowers/images/15.jpg,70,GZ,001,2020-11-21_14h45.23.143,test1,2020.2.5,Win32,60,,,,,,,
,,,,m,7.999265,0,70,70,70,1,flowers/images/341.jpg,flowers/images/357.jpg,71,GZ,001,2020-11-21_14h45.23.143,test1,2020.2.5,Win32,60,,,,,,,
,,,,z,5.19885,0,71,71,71,1,flowers/images/293.jpg,flowers/images/158.jpg,72,GZ,001,2020-11-21_14h45.23.143,test1,2020.2.5,Win32,60,,,,,,,
,,,,z,5.90175,0,72,72,72,1,flowers/images/390.jpg,flowers/images/58.jpg,73,GZ,001,2020-11-21_14h45.23.143,test1,2020.2.5,Win32,60,,,,,,,
,,,,z,1.35006,0,73,73,73,1,flowers/images/82.jpg,flowers/images/16.jpg,74,GZ,001,2020-11-21_14h45.23.143,test1,2020.2.5,Win32,60,,,,,,,
,,,,m,1.416655,0,74,74,74,1,flowers/images/336.jpg,flowers/images/130.jpg,75,GZ,001,2020-11-21_14h45.23.143,test1,2020.2.5,Win32,60,,,,,,,
,,,,m,1.67259,0,75,75,75,1,flowers/images/160.jpg,flowers/images/105.jpg,76,GZ,001,2020-11-21_14h45.23.143,test1,2020.2.5,Win32,60,,,,,,,
,,,,z,1.30008,0,76,76,76,1,flowers/images/328.jpg,flowers/images/305.jpg,77,GZ,001,2020-11-21_14h45.23.143,test1,2020.2.5,Win32,60,,,,,,,
,,,,m,1.34945,0,77,77,77,1,flowers/images/180.jpg,flowers/images/249.jpg,78,GZ,001,2020-11-21_14h45.23.143,test1,2020.2.5,Win32,60,,,,,,,
,,,,z,1.273845,0,78,78,78,1,flowers/images/169.jpg,flowers/images/94.jpg,79,GZ,001,2020-11-21_14h45.23.143,test1,2020.2.5,Win32,60,,,,,,,
,,,,m,1.8498,0,79,79,79,1,flowers/images/145.jpg,flowers/images/277.jpg,80,GZ,001,2020-11-21_14h45.23.143,test1,2020.2.5,Win32,60,,,,,,,
,,,,z,2.18088,0,80,80,80,1,flowers/images/358.jpg,flowers/images/197.jpg,81,GZ,001,2020-11-21_14h45.23.143,test1,2020.2.5,Win32,60,,,,,,,
,,,,m,4.383445,0,81,81,81,1,flowers/images/71.jpg,flowers/images/128.jpg,82,GZ,001,2020-11-21_14h45.23.143,test1,2020.2.5,Win32,60,,,,,,,
,,,,m,1.465635,0,82,82,82,1,flowers/images/192.jpg,flowers/images/379.jpg,83,GZ,001,2020-11-21_14h45.23.143,test1,2020.2.5,Win32,60,,,,,,,
,,,,z,3.43706,0,83,83,83,1,flowers/images/189.jpg,flowers/images/271.jpg,84,GZ,001,2020-11-21_14h45.23.143,test1,2020.2.5,Win32,60,,,,,,,
,,,,z,1.265315,0,84,84,84,1,flowers/images/15.jpg,flowers/images/28.jpg,85,GZ,001,2020-11-21_14h45.23.143,test1,2020.2.5,Win32,60,,,,,,,
,,,,m,0.948485,0,85,85,85,1,flowers/images/171.jpg,flowers/images/97.jpg,86,GZ,001,2020-11-21_14h45.23.143,test1,2020.2.5,Win32,60,,,,,,,
,,,,z,1.98149,0,86,86,86,1,flowers/images/287.jpg,flowers/images/29.jpg,87,GZ,001,2020-11-21_14h45.23.143,test1,2020.2.5,Win32,60,,,,,,,
,,,,z,1.565005,0,87,87,87,1,flowers/images/381.jpg,flowers/images/356.jpg,88,GZ,001,2020-11-21_14h45.23.143,test1,2020.2.5,Win32,60,,,,,,,
,,,,m,1.117105,0,88,88,88,1,flowers/images/76.jpg,flowers/images/10.jpg,89,GZ,001,2020-11-21_14h45.23.143,test1,2020.2.5,Win32,60,,,,,,,
,,,,z,1.399455,0,89,89,89,1,flowers/images/239.jpg,flowers/images/226.jpg,90,GZ,001,2020-11-21_14h45.23.143,test1,2020.2.5,Win32,60,,,,,,,
,,,,z,1.286415,0,90,90,90,1,flowers/images/398.jpg,flowers/images/368.jpg,91,GZ,001,2020-11-21_14h45.23.143,test1,2020.2.5,Win32,60,,,,,,,
,,,,z,1.26863,0,91,91,91,1,flowers/images/21.jpg,flowers/images/53.jpg,92,GZ,001,2020-11-21_14h45.23.143,test1,2020.2.5,Win32,60,,,,,,,
,,,,z,1.448335,0,92,92,92,1,flowers/images/352.jpg,flowers/images/230.jpg,93,GZ,001,2020-11-21_14h45.23.143,test1,2020.2.5,Win32,60,,,,,,,
,,,,z,1.550115,0,93,93,93,1,flowers/images/54.jpg,flowers/images/280.jpg,94,GZ,001,2020-11-21_14h45.23.143,test1,2020.2.5,Win32,60,,,,,,,
,,,,z,1.27146,0,94,94,94,1,flowers/images/259.jpg,flowers/images/184.jpg,95,GZ,001,2020-11-21_14h45.23.143,test1,2020.2.5,Win32,60,,,,,,,
,,,,z,2.32248,0,95,95,95,1,flowers/images/7.jpg,flowers/images/137.jpg,96,GZ,001,2020-11-21_14h45.23.143,test1,2020.2.5,Win32,60,,,,,,,
,,,,m,1.421655,0,96,96,96,1,flowers/images/292.jpg,flowers/images/364.jpg,97,GZ,001,2020-11-21_14h45.23.143,test1,2020.2.5,Win32,60,,,,,,,
,,,,z,1.88316,0,97,97,97,1,flowers/images/84.jpg,flowers/images/245.jpg,98,GZ,001,2020-11-21_14h45.23.143,test1,2020.2.5,Win32,60,,,,,,,
,,,,m,4.62157,0,98,98,98,1,flowers/images/141.jpg,flowers/images/183.jpg,99,GZ,001,2020-11-21_14h45.23.143,test1,2020.2.5,Win32,60,,,,,,,
,,,,m,1.570425,0,99,99,99,1,flowers/images/45.jpg,flowers/images/375.jpg,100,GZ,001,2020-11-21_14h45.23.143,test1,2020.2.5,Win32,60,,,,,,,
,,,,m,1.620195,0,100,100,100,1,flowers/images/111.jpg,flowers/images/395.jpg,101,GZ,001,2020-11-21_14h45.23.143,test1,2020.2.5,Win32,60,,,,,,,
,,,,m,2.585745,0,101,101,101,1,flowers/images/46.jpg,flowers/images/360.jpg,102,GZ,001,2020-11-21_14h45.23.143,test1,2020.2.5,Win32,60,,,,,,,
,,,,z,1.3548,0,102,102,102,1,flowers/images/399.jpg,flowers/images/4.jpg,103,GZ,001,2020-11-21_14h45.23.143,test1,2020.2.5,Win32,60,,,,,,,
,,,,m,4.07108,0,103,103,103,1,flowers/images/250.jpg,flowers/images/113.jpg,104,GZ,001,2020-11-21_14h45.23.143,test1,2020.2.5,Win32,60,,,,,,,
,,,,m,3.027195,0,104,104,104,1,flowers/images/359.jpg,flowers/images/283.jpg,105,GZ,001,2020-11-21_14h45.23.143,test1,2020.2.5,Win32,60,,,,,,,
,,,,m,1.193495,0,105,105,105,1,flowers/images/209.jpg,flowers/images/309.jpg,106,GZ,001,2020-11-21_14h45.23.143,test1,2020.2.5,Win32,60,,,,,,,
,,,,z,2.795245,0,106,106,106,1,flowers/images/219.jpg,flowers/images/285.jpg,107,GZ,001,2020-11-21_14h45.23.143,test1,2020.2.5,Win32,60,,,,,,,
,,,,m,1.79806,0,107,107,107,1,flowers/images/159.jpg,flowers/images/377.jpg,108,GZ,001,2020-11-21_14h45.23.143,test1,2020.2.5,Win32,60,,,,,,,
,,,,m,1.862165,0,108,108,108,1,flowers/images/17.jpg,flowers/images/365.jpg,109,GZ,001,2020-11-21_14h45.23.143,test1,2020.2.5,Win32,60,,,,,,,
,,,,z,4.36521,0,109,109,109,1,flowers/images/247.jpg,flowers/images/14.jpg,110,GZ,001,2020-11-21_14h45.23.143,test1,2020.2.5,Win32,60,,,,,,,
,,,,z,1.082865,0,110,110,110,1,flowers/images/357.jpg,flowers/images/229.jpg,111,GZ,001,2020-11-21_14h45.23.143,test1,2020.2.5,Win32,60,,,,,,,
,,,,m,1.63963,0,111,111,111,1,flowers/images/378.jpg,flowers/images/299.jpg,112,GZ,001,2020-11-21_14h45.23.143,test1,2020.2.5,Win32,60,,,,,,,
,,,,m,1.465335,0,112,112,112,1,flowers/images/191.jpg,flowers/images/304.jpg,113,GZ,001,2020-11-21_14h45.23.143,test1,2020.2.5,Win32,60,,,,,,,
,,,,z,2.282685,0,113,113,113,1,flowers/images/195.jpg,flowers/images/44.jpg,114,GZ,001,2020-11-21_14h45.23.143,test1,2020.2.5,Win32,60,,,,,,,
,,,,m,3.56836,0,114,114,114,1,flowers/images/126.jpg,flowers/images/161.jpg,115,GZ,001,2020-11-21_14h45.23.143,test1,2020.2.5,Win32,60,,,,,,,
,,,,z,4.785995,0,115,115,115,1,flowers/images/340.jpg,flowers/images/178.jpg,116,GZ,001,2020-11-21_14h45.23.143,test1,2020.2.5,Win32,60,,,,,,,
,,,,z,1.504275,0,116,116,116,1,flowers/images/201.jpg,flowers/images/21.jpg,117,GZ,001,2020-11-21_14h45.23.143,test1,2020.2.5,Win32,60,,,,,,,
,,,,z,2.0746,0,117,117,117,1,flowers/images/307.jpg,flowers/images/122.jpg,118,GZ,001,2020-11-21_14h45.23.143,test1,2020.2.5,Win32,60,,,,,,,
,,,,m,1.333895,0,118,118,118,1,flowers/images/194.jpg,flowers/images/23.jpg,119,GZ,001,2020-11-21_14h45.23.143,test1,2020.2.5,Win32,60,,,,,,,
,,,,z,1.15913,0,119,119,119,1,flowers/images/318.jpg,flowers/images/293.jpg,120,GZ,001,2020-11-21_14h45.23.143,test1,2020.2.5,Win32,60,,,,,,,
,,,,z,1.08008,0,120,120,120,1,flowers/images/69.jpg,flowers/images/327.jpg,121,GZ,001,2020-11-21_14h45.23.143,test1,2020.2.5,Win32,60,,,,,,,
,,,,z,1.047935,0,121,121,121,1,flowers/images/98.jpg,flowers/images/208.jpg,122,GZ,001,2020-11-21_14h45.23.143,test1,2020.2.5,Win32,60,,,,,,,
,,,,z,1.59622,0,122,122,122,1,flowers/images/184.jpg,flowers/images/96.jpg,123,GZ,001,2020-11-21_14h45.23.143,test1,2020.2.5,Win32,60,,,,,,,
,,,,m,1.078995,0,123,123,123,1,flowers/images/44.jpg,flowers/images/317.jpg,124,GZ,001,2020-11-21_14h45.23.143,test1,2020.2.5,Win32,60,,,,,,,
,,,,z,2.229725,0,124,124,124,1,flowers/images/222.jpg,flowers/images/9.jpg,125,GZ,001,2020-11-21_14h45.23.143,test1,2020.2.5,Win32,60,,,,,,,
,,,,z,1.364175,0,125,125,125,1,flowers/images/218.jpg,flowers/images/153.jpg,126,GZ,001,2020-11-21_14h45.23.143,test1,2020.2.5,Win32,60,,,,,,,
,,,,z,1.63238,0,126,126,126,1,flowers/images/275.jpg,flowers/images/295.jpg,127,GZ,001,2020-11-21_14h45.23.143,test1,2020.2.5,Win32,60,,,,,,,
,,,,m,2.399425,0,127,127,127,1,flowers/images/172.jpg,flowers/images/34.jpg,128,GZ,001,2020-11-21_14h45.23.143,test1,2020.2.5,Win32,60,,,,,,,
,,,,m,3.11756,0,128,128,128,1,flowers/images/345.jpg,flowers/images/89.jpg,129,GZ,001,2020-11-21_14h45.23.143,test1,2020.2.5,Win32,60,,,,,,,
,,,,z,1.749455,0,129,129,129,1,flowers/images/334.jpg,flowers/images/376.jpg,130,GZ,001,2020-11-21_14h45.23.143,test1,2020.2.5,Win32,60,,,,,,,
,,,,z,1.522985,0,130,130,130,1,flowers/images/93.jpg,flowers/images/6.jpg,131,GZ,001,2020-11-21_14h45.23.143,test1,2020.2.5,Win32,60,,,,,,,
,,,,z,1.7793,0,131,131,131,1,flowers/images/183.jpg,flowers/images/76.jpg,132,GZ,001,2020-11-21_14h45.23.143,test1,2020.2.5,Win32,60,,,,,,,
,,,,m,1.265525,0,132,132,132,1,flowers/images/304.jpg,flowers/images/224.jpg,133,GZ,001,2020-11-21_14h45.23.143,test1,2020.2.5,Win32,60,,,,,,,
,,,,m,2.968755,0,133,133,133,1,flowers/images/330.jpg,flowers/images/81.jpg,134,GZ,001,2020-11-21_14h45.23.143,test1,2020.2.5,Win32,60,,,,,,,
,,,,m,1.443775,0,134,134,134,1,flowers/images/147.jpg,flowers/images/36.jpg,135,GZ,001,2020-11-21_14h45.23.143,test1,2020.2.5,Win32,60,,,,,,,
,,,,m,2.74537,0,135,135,135,1,flowers/images/62.jpg,flowers/images/321.jpg,136,GZ,001,2020-11-21_14h45.23.143,test1,2020.2.5,Win32,60,,,,,,,
,,,,m,2.411315,0,136,136,136,1,flowers/images/367.jpg,flowers/images/311.jpg,137,GZ,001,2020-11-21_14h45.23.143,test1,2020.2.5,Win32,60,,,,,,,
,,,,z,2.05277,0,137,137,137,1,flowers/images/326.jpg,flowers/images/7.jpg,138,GZ,001,2020-11-21_14h45.23.143,test1,2020.2.5,Win32,60,,,,,,,
,,,,m,1.328985,0,138,138,138,1,flowers/images/28.jpg,flowers/images/382.jpg,139,GZ,001,2020-11-21_14h45.23.143,test1,2020.2.5,Win32,60,,,,,,,
,,,,z,3.05453,0,139,139,139,1,flowers/images/156.jpg,flowers/images/152.jpg,140,GZ,001,2020-11-21_14h45.23.143,test1,2020.2.5,Win32,60,,,,,,,
,,,,m,2.59974,0,140,140,140,1,flowers/images/113.jpg,flowers/images/167.jpg,141,GZ,001,2020-11-21_14h45.23.143,test1,2020.2.5,Win32,60,,,,,,,
,,,,m,1.07051,0,141,141,141,1,flowers/images/155.jpg,flowers/images/342.jpg,142,GZ,001,2020-11-21_14h45.23.143,test1,2020.2.5,Win32,60,,,,,,,
,,,,m,3.014705,0,142,142,142,1,flowers/images/213.jpg,flowers/images/353.jpg,143,GZ,001,2020-11-21_14h45.23.143,test1,2020.2.5,Win32,60,,,,,,,
,,,,m,1.532155,0,143,143,143,1,flowers/images/298.jpg,flowers/images/90.jpg,144,GZ,001,2020-11-21_14h45.23.143,test1,2020.2.5,Win32,60,,,,,,,
,,,,z,1.17175,0,144,144,144,1,flowers/images/217.jpg,flowers/images/240.jpg,145,GZ,001,2020-11-21_14h45.23.143,test1,2020.2.5,Win32,60,,,,,,,
,,,,z,2.09948,0,145,145,145,1,flowers/images/97.jpg,flowers/images/133.jpg,146,GZ,001,2020-11-21_14h45.23.143,test1,2020.2.5,Win32,60,,,,,,,
,,,,z,0.92922,0,146,146,146,1,flowers/images/354.jpg,flowers/images/310.jpg,147,GZ,001,2020-11-21_14h45.23.143,test1,2020.2.5,Win32,60,,,,,,,
,,,,m,2.72072,0,147,147,147,1,flowers/images/377.jpg,flowers/images/273.jpg,148,GZ,001,2020-11-21_14h45.23.143,test1,2020.2.5,Win32,60,,,,,,,
,,,,m,1.966815,0,148,148,148,1,flowers/images/121.jpg,flowers/images/294.jpg,149,GZ,001,2020-11-21_14h45.23.143,test1,2020.2.5,Win32,60,,,,,,,
,,,,m,2.34776,0,149,149,149,1,flowers/images/14.jpg,flowers/images/101.jpg,150,GZ,001,2020-11-21_14h45.23.143,test1,2020.2.5,Win32,60,,,,,,,
,,,,m,2.22135,0,150,150,150,1,flowers/images/321.jpg,flowers/images/51.jpg,151,GZ,001,2020-11-21_14h45.23.143,test1,2020.2.5,Win32,60,,,,,,,
,,,,m,4.09814,0,151,151,151,1,flowers/images/362.jpg,flowers/images/175.jpg,152,GZ,001,2020-11-21_14h45.23.143,test1,2020.2.5,Win32,60,,,,,,,
,,,,m,2.034695,0,152,152,152,1,flowers/images/203.jpg,flowers/images/248.jpg,153,GZ,001,2020-11-21_14h45.23.143,test1,2020.2.5,Win32,60,,,,,,,
,,,,z,2.013145,0,153,153,153,1,flowers/images/12.jpg,flowers/images/300.jpg,154,GZ,001,2020-11-21_14h45.23.143,test1,2020.2.5,Win32,60,,,,,,,
,,,,z,1.36372,0,154,154,154,1,flowers/images/365.jpg,flowers/images/218.jpg,155,GZ,001,2020-11-21_14h45.23.143,test1,2020.2.5,Win32,60,,,,,,,
,,,,z,1.71863,0,155,155,155,1,flowers/images/75.jpg,flowers/images/109.jpg,156,GZ,001,2020-11-21_14h45.23.143,test1,2020.2.5,Win32,60,,,,,,,
,,,,m,1.34755,0,156,156,156,1,flowers/images/127.jpg,flowers/images/333.jpg,157,GZ,001,2020-11-21_14h45.23.143,test1,2020.2.5,Win32,60,,,,,,,
,,,,m,2.3631,0,157,157,157,1,flowers/images/258.jpg,flowers/images/135.jpg,158,GZ,001,2020-11-21_14h45.23.143,test1,2020.2.5,Win32,60,,,,,,,
,,,,m,1.532535,0,158,158,158,1,flowers/images/343.jpg,flowers/images/65.jpg,159,GZ,001,2020-11-21_14h45.23.143,test1,2020.2.5,Win32,60,,,,,,,
,,,,z,2.29912,0,159,159,159,1,flowers/images/58.jpg,flowers/images/138.jpg,160,GZ,001,2020-11-21_14h45.23.143,test1,2020.2.5,Win32,60,,,,,,,
,,,,m,1.91812,0,160,160,160,1,flowers/images/94.jpg,flowers/images/234.jpg,161,GZ,001,2020-11-21_14h45.23.143,test1,2020.2.5,Win32,60,,,,,,,
,,,,m,2.02424,0,161,161,161,1,flowers/images/379.jpg,flowers/images/207.jpg,162,GZ,001,2020-11-21_14h45.23.143,test1,2020.2.5,Win32,60,,,,,,,
,,,,m,2.19675,0,162,162,162,1,flowers/images/128.jpg,flowers/images/79.jpg,163,GZ,001,2020-11-21_14h45.23.143,test1,2020.2.5,Win32,60,,,,,,,
,,,,m,1.96423,0,163,163,163,1,flowers/images/47.jpg,flowers/images/85.jpg,164,GZ,001,2020-11-21_14h45.23.143,test1,2020.2.5,Win32,60,,,,,,,
,,,,z,2.080125,0,164,164,164,1,flowers/images/19.jpg,flowers/images/191.jpg,165,GZ,001,2020-11-21_14h45.23.143,test1,2020.2.5,Win32,60,,,,,,,
,,,,m,1.497525,0,165,165,165,1,flowers/images/32.jpg,flowers/images/259.jpg,166,GZ,001,2020-11-21_14h45.23.143,test1,2020.2.5,Win32,60,,,,,,,
,,,,m,3.921425,0,166,166,166,1,flowers/images/323.jpg,flowers/images/284.jpg,167,GZ,001,2020-11-21_14h45.23.143,test1,2020.2.5,Win32,60,,,,,,,
,,,,z,2.0876,0,167,167,167,1,flowers/images/395.jpg,flowers/images/348.jpg,168,GZ,001,2020-11-21_14h45.23.143,test1,2020.2.5,Win32,60,,,,,,,
,,,,m,0.982455,0,168,168,168,1,flowers/images/279.jpg,flowers/images/370.jpg,169,GZ,001,2020-11-21_14h45.23.143,test1,2020.2.5,Win32,60,,,,,,,
,,,,z,2.148275,0,169,169,169,1,flowers/images/264.jpg,flowers/images/125.jpg,170,GZ,001,2020-11-21_14h45.23.143,test1,2020.2.5,Win32,60,,,,,,,
,,,,m,1.955135,0,170,170,170,1,flowers/images/77.jpg,flowers/images/318.jpg,171,GZ,001,2020-11-21_14h45.23.143,test1,2020.2.5,Win32,60,,,,,,,
,,,,m,2.9137,0,171,171,171,1,flowers/images/376.jpg,flowers/images/242.jpg,172,GZ,001,2020-11-21_14h45.23.143,test1,2020.2.5,Win32,60,,,,,,,
,,,,z,2.264955,0,172,172,172,1,flowers/images/351.jpg,flowers/images/132.jpg,173,GZ,001,2020-11-21_14h45.23.143,test1,2020.2.5,Win32,60,,,,,,,
,,,,m,2.03209,0,173,173,173,1,flowers/images/305.jpg,flowers/images/252.jpg,174,GZ,001,2020-11-21_14h45.23.143,test1,2020.2.5,Win32,60,,,,,,,
,,,,m,1.530935,0,174,174,174,1,flowers/images/29.jpg,flowers/images/217.jpg,175,GZ,001,2020-11-21_14h45.23.143,test1,2020.2.5,Win32,60,,,,,,,
,,,,m,2.11955,0,175,175,175,1,flowers/images/3.jpg,flowers/images/228.jpg,176,GZ,001,2020-11-21_14h45.23.143,test1,2020.2.5,Win32,60,,,,,,,
,,,,m,2.698995,0,176,176,176,1,flowers/images/199.jpg,flowers/images/330.jpg,177,GZ,001,2020-11-21_14h45.23.143,test1,2020.2.5,Win32,60,,,,,,,
,,,,z,2.130745,0,177,177,177,1,flowers/images/274.jpg,flowers/images/179.jpg,178,GZ,001,2020-11-21_14h45.23.143,test1,2020.2.5,Win32,60,,,,,,,
,,,,z,1.59681,0,178,178,178,1,flowers/images/346.jpg,flowers/images/290.jpg,179,GZ,001,2020-11-21_14h45.23.143,test1,2020.2.5,Win32,60,,,,,,,
,,,,m,1.02251,0,179,179,179,1,flowers/images/56.jpg,flowers/images/204.jpg,180,GZ,001,2020-11-21_14h45.23.143,test1,2020.2.5,Win32,60,,,,,,,
,,,,z,1.50451,0,180,180,180,1,flowers/images/179.jpg,flowers/images/114.jpg,181,GZ,001,2020-11-21_14h45.23.143,test1,2020.2.5,Win32,60,,,,,,,
,,,,m,2.186455,0,181,181,181,1,flowers/images/36.jpg,flowers/images/223.jpg,182,GZ,001,2020-11-21_14h45.23.143,test1,2020.2.5,Win32,60,,,,,,,
,,,,z,3.447365,0,182,182,182,1,flowers/images/344.jpg,flowers/images/168.jpg,183,GZ,001,2020-11-21_14h45.23.143,test1,2020.2.5,Win32,60,,,,,,,
,,,,m,1.305205,0,183,183,183,1,flowers/images/153.jpg,flowers/images/22.jpg,184,GZ,001,2020-11-21_14h45.23.143,test1,2020.2.5,Win32,60,,,,,,,
,,,,z,0.997445,0,184,184,184,1,flowers/images/39.jpg,flowers/images/323.jpg,185,GZ,001,2020-11-21_14h45.23.143,test1,2020.2.5,Win32,60,,,,,,,
,,,,m,1.952235,0,185,185,185,1,flowers/images/327.jpg,flowers/images/349.jpg,186,GZ,001,2020-11-21_14h45.23.143,test1,2020.2.5,Win32,60,,,,,,,
,,,,z,1.753325,0,186,186,186,1,flowers/images/81.jpg,flowers/images/30.jpg,187,GZ,001,2020-11-21_14h45.23.143,test1,2020.2.5,Win32,60,,,,,,,
,,,,z,1.813365,0,187,187,187,1,flowers/images/42.jpg,flowers/images/107.jpg,188,GZ,001,2020-11-21_14h45.23.143,test1,2020.2.5,Win32,60,,,,,,,
,,,,z,1.29762,0,188,188,188,1,flowers/images/18.jpg,flowers/images/358.jpg,189,GZ,001,2020-11-21_14h45.23.143,test1,2020.2.5,Win32,60,,,,,,,
,,,,z,1.96405,0,189,189,189,1,flowers/images/200.jpg,flowers/images/385.jpg,190,GZ,001,2020-11-21_14h45.23.143,test1,2020.2.5,Win32,60,,,,,,,
,,,,m,4.313405,0,190,190,190,1,flowers/images/369.jpg,flowers/images/233.jpg,191,GZ,001,2020-11-21_14h45.23.143,test1,2020.2.5,Win32,60,,,,,,,
,,,,z,3.1216,0,191,191,191,1,flowers/images/309.jpg,flowers/images/320.jpg,192,GZ,001,2020-11-21_14h45.23.143,test1,2020.2.5,Win32,60,,,,,,,
,,,,m,5.66386,0,192,192,192,1,flowers/images/64.jpg,flowers/images/303.jpg,193,GZ,001,2020-11-21_14h45.23.143,test1,2020.2.5,Win32,60,,,,,,,
,,,,z,1.34667,0,193,193,193,1,flowers/images/86.jpg,flowers/images/216.jpg,194,GZ,001,2020-11-21_14h45.23.143,test1,2020.2.5,Win32,60,,,,,,,
,,,,m,2.15145,0,194,194,194,1,flowers/images/260.jpg,flowers/images/361.jpg,195,GZ,001,2020-11-21_14h45.23.143,test1,2020.2.5,Win32,60,,,,,,,
,,,,m,5.432425,0,195,195,195,1,flowers/images/9.jpg,flowers/images/173.jpg,196,GZ,001,2020-11-21_14h45.23.143,test1,2020.2.5,Win32,60,,,,,,,
,,,,z,1.868085,0,196,196,196,1,flowers/images/22.jpg,flowers/images/41.jpg,197,GZ,001,2020-11-21_14h45.23.143,test1,2020.2.5,Win32,60,,,,,,,
,,,,m,3.11927,0,197,197,197,1,flowers/images/214.jpg,flowers/images/145.jpg,198,GZ,001,2020-11-21_14h45.23.143,test1,2020.2.5,Win32,60,,,,,,,
,,,,m,2.36948,0,198,198,198,1,flowers/images/72.jpg,flowers/images/308.jpg,199,GZ,001,2020-11-21_14h45.23.143,test1,2020.2.5,Win32,60,,,,,,,
,,,,z,5.032215,0,199,199,199,1,flowers/images/34.jpg,flowers/images/237.jpg,200,GZ,001,2020-11-21_14h45.23.143,test1,2020.2.5,Win32,60,,,,,,,
,,,,z,2.24846,,,,,,flowers/images/166.jpg,flowers/images/169.jpg,1,GZ,001,2020-11-21_14h45.23.143,test1,2020.2.5,Win32,60,space,60.68819,0,0,0,0,1
,,,,z,2.27817,,,,,,flowers/images/161.jpg,flowers/images/68.jpg,2,GZ,001,2020-11-21_14h45.23.143,test1,2020.2.5,Win32,60,,,0,1,1,1,1
,,,,z,2.696735,,,,,,flowers/images/319.jpg,flowers/images/341.jpg,3,GZ,001,2020-11-21_14h45.23.143,test1,2020.2.5,Win32,60,,,0,2,2,2,1
,,,,z,1.339525,,,,,,flowers/images/322.jpg,flowers/images/111.jpg,4,GZ,001,2020-11-21_14h45.23.143,test1,2020.2.5,Win32,60,,,0,3,3,3,1
,,,,z,3.11113,,,,,,flowers/images/2.jpg,flowers/images/95.jpg,5,GZ,001,2020-11-21_14h45.23.143,test1,2020.2.5,Win32,60,,,0,4,4,4,1
,,,,m,3.632605,,,,,,flowers/images/276.jpg,flowers/images/66.jpg,6,GZ,001,2020-11-21_14h45.23.143,test1,2020.2.5,Win32,60,,,0,5,5,5,1
,,,,m,1.07561,,,,,,flowers/images/116.jpg,flowers/images/206.jpg,7,GZ,001,2020-11-21_14h45.23.143,test1,2020.2.5,Win32,60,,,0,6,6,6,1
,,,,z,3.13784,,,,,,flowers/images/282.jpg,flowers/images/314.jpg,8,GZ,001,2020-11-21_14h45.23.143,test1,2020.2.5,Win32,60,,,0,7,7,7,1
,,,,z,0.96104,,,,,,flowers/images/261.jpg,flowers/images/260.jpg,9,GZ,001,2020-11-21_14h45.23.143,test1,2020.2.5,Win32,60,,,0,8,8,8,1
,,,,z,1.31553,,,,,,flowers/images/353.jpg,flowers/images/151.jpg,10,GZ,001,2020-11-21_14h45.23.143,test1,2020.2.5,Win32,60,,,0,9,9,9,1
,,,,m,3.41972,,,,,,flowers/images/216.jpg,flowers/images/156.jpg,11,GZ,001,2020-11-21_14h45.23.143,test1,2020.2.5,Win32,60,,,0,10,10,10,1
,,,,z,1.582235,,,,,,flowers/images/320.jpg,flowers/images/292.jpg,12,GZ,001,2020-11-21_14h45.23.143,test1,2020.2.5,Win32,60,,,0,11,11,11,1
,,,,m,2.34917,,,,,,flowers/images/149.jpg,flowers/images/279.jpg,13,GZ,001,2020-11-21_14h45.23.143,test1,2020.2.5,Win32,60,,,0,12,12,12,1
,,,,m,2.15034,,,,,,flowers/images/163.jpg,flowers/images/219.jpg,14,GZ,001,2020-11-21_14h45.23.143,test1,2020.2.5,Win32,60,,,0,13,13,13,1
,,,,z,1.299985,,,,,,flowers/images/10.jpg,flowers/images/232.jpg,15,GZ,001,2020-11-21_14h45.23.143,test1,2020.2.5,Win32,60,,,0,14,14,14,1
,,,,m,0.93442,,,,,,flowers/images/55.jpg,flowers/images/73.jpg,16,GZ,001,2020-11-21_14h45.23.143,test1,2020.2.5,Win32,60,,,0,15,15,15,1
,,,,m,1.150275,,,,,,flowers/images/123.jpg,flowers/images/189.jpg,17,GZ,001,2020-11-21_14h45.23.143,test1,2020.2.5,Win32,60,,,0,16,16,16,1
,,,,m,1.45474,,,,,,flowers/images/37.jpg,flowers/images/254.jpg,18,GZ,001,2020-11-21_14h45.23.143,test1,2020.2.5,Win32,60,,,0,17,17,17,1
,,,,m,3.269955,,,,,,flowers/images/230.jpg,flowers/images/166.jpg,19,GZ,001,2020-11-21_14h45.23.143,test1,2020.2.5,Win32,60,,,0,18,18,18,1
,,,,m,1.815355,,,,,,flowers/images/338.jpg,flowers/images/33.jpg,20,GZ,001,2020-11-21_14h45.23.143,test1,2020.2.5,Win32,60,,,0,19,19,19,1
,,,,z,2.13899,,,,,,flowers/images/337.jpg,flowers/images/193.jpg,21,GZ,001,2020-11-21_14h45.23.143,test1,2020.2.5,Win32,60,,,0,20,20,20,1
,,,,z,1.21832,,,,,,flowers/images/83.jpg,flowers/images/339.jpg,22,GZ,001,2020-11-21_14h45.23.143,test1,2020.2.5,Win32,60,,,0,21,21,21,1
,,,,z,5.39884,,,,,,flowers/images/190.jpg,flowers/images/99.jpg,23,GZ,001,2020-11-21_14h45.23.143,test1,2020.2.5,Win32,60,,,0,22,22,22,1
,,,,z,1.349395,,,,,,flowers/images/257.jpg,flowers/images/369.jpg,24,GZ,001,2020-11-21_14h45.23.143,test1,2020.2.5,Win32,60,,,0,23,23,23,1
,,,,m,2.408595,,,,,,flowers/images/280.jpg,flowers/images/355.jpg,25,GZ,001,2020-11-21_14h45.23.143,test1,2020.2.5,Win32,60,,,0,24,24,24,1
,,,,m,1.91562,,,,,,flowers/images/105.jpg,flowers/images/338.jpg,26,GZ,001,2020-11-21_14h45.23.143,test1,2020.2.5,Win32,60,,,0,25,25,25,1
,,,,z,2.2669,,,,,,flowers/images/202.jpg,flowers/images/3.jpg,27,GZ,001,2020-11-21_14h45.23.143,test1,2020.2.5,Win32,60,,,0,26,26,26,1
,,,,z,3.007765,,,,,,flowers/images/212.jpg,flowers/images/38.jpg,28,GZ,001,2020-11-21_14h45.23.143,test1,2020.2.5,Win32,60,,,0,27,27,27,1
,,,,m,2.0826,,,,,,flowers/images/152.jpg,flowers/images/0.jpg,29,GZ,001,2020-11-21_14h45.23.143,test1,2020.2.5,Win32,60,,,0,28,28,28,1
,,,,m,1.550425,,,,,,flowers/images/170.jpg,flowers/images/296.jpg,30,GZ,001,2020-11-21_14h45.23.143,test1,2020.2.5,Win32,60,,,0,29,29,29,1
,,,,z,2.10531,,,,,,flowers/images/74.jpg,flowers/images/80.jpg,31,GZ,001,2020-11-21_14h45.23.143,test1,2020.2.5,Win32,60,,,0,30,30,30,1
,,,,z,1.514315,,,,,,flowers/images/226.jpg,flowers/images/117.jpg,32,GZ,001,2020-11-21_14h45.23.143,test1,2020.2.5,Win32,60,,,0,31,31,31,1
,,,,m,2.632755,,,,,,flowers/images/1.jpg,flowers/images/19.jpg,33,GZ,001,2020-11-21_14h45.23.143,test1,2020.2.5,Win32,60,,,0,32,32,32,1
,,,,m,3.18221,,,,,,flowers/images/182.jpg,flowers/images/335.jpg,34,GZ,001,2020-11-21_14h45.23.143,test1,2020.2.5,Win32,60,,,0,33,33,33,1
,,,,m,3.86409,,,,,,flowers/images/245.jpg,flowers/images/62.jpg,35,GZ,001,2020-11-21_14h45.23.143,test1,2020.2.5,Win32,60,,,0,34,34,34,1
,,,,m,1.549705,,,,,,flowers/images/167.jpg,flowers/images/49.jpg,36,GZ,001,2020-11-21_14h45.23.143,test1,2020.2.5,Win32,60,,,0,35,35,35,1
,,,,z,1.066175,,,,,,flowers/images/38.jpg,flowers/images/250.jpg,37,GZ,001,2020-11-21_14h45.23.143,test1,2020.2.5,Win32,60,,,0,36,36,36,1
,,,,z,1.117755,,,,,,flowers/images/124.jpg,flowers/images/324.jpg,38,GZ,001,2020-11-21_14h45.23.143,test1,2020.2.5,Win32,60,,,0,37,37,37,1
,,,,z,1.333355,,,,,,flowers/images/92.jpg,flowers/images/13.jpg,39,GZ,001,2020-11-21_14h45.23.143,test1,2020.2.5,Win32,60,,,0,38,38,38,1
,,,,z,2.083925,,,,,,flowers/images/120.jpg,flowers/images/374.jpg,40,GZ,001,2020-11-21_14h45.23.143,test1,2020.2.5,Win32,60,,,0,39,39,39,1
,,,,m,1.200255,,,,,,flowers/images/350.jpg,flowers/images/100.jpg,41,GZ,001,2020-11-21_14h45.23.143,test1,2020.2.5,Win32,60,,,0,40,40,40,1
,,,,m,1.083315,,,,,,flowers/images/68.jpg,flowers/images/236.jpg,42,GZ,001,2020-11-21_14h45.23.143,test1,2020.2.5,Win32,60,,,0,41,41,41,1
,,,,m,1.94132,,,,,,flowers/images/5.jpg,flowers/images/340.jpg,43,GZ,001,2020-11-21_14h45.23.143,test1,2020.2.5,Win32,60,,,0,42,42,42,1
,,,,m,1.297725,,,,,,flowers/images/99.jpg,flowers/images/313.jpg,44,GZ,001,2020-11-21_14h45.23.143,test1,2020.2.5,Win32,60,,,0,43,43,43,1
,,,,z,1.267135,,,,,,flowers/images/229.jpg,flowers/images/177.jpg,45,GZ,001,2020-11-21_14h45.23.143,test1,2020.2.5,Win32,60,,,0,44,44,44,1
,,,,z,1.61635,,,,,,flowers/images/361.jpg,flowers/images/383.jpg,46,GZ,001,2020-11-21_14h45.23.143,test1,2020.2.5,Win32,60,,,0,45,45,45,1
,,,,m,1.332345,,,,,,flowers/images/129.jpg,flowers/images/398.jpg,47,GZ,001,2020-11-21_14h45.23.143,test1,2020.2.5,Win32,60,,,0,46,46,46,1
,,,,z,1.4339,,,,,,flowers/images/228.jpg,flowers/images/159.jpg,48,GZ,001,2020-11-21_14h45.23.143,test1,2020.2.5,Win32,60,,,0,47,47,47,1
,,,,z,1.59985,,,,,,flowers/images/65.jpg,flowers/images/312.jpg,49,GZ,001,2020-11-21_14h45.23.143,test1,2020.2.5,Win32,60,,,0,48,48,48,1
,,,,z,2.598435,,,,,,flowers/images/73.jpg,flowers/images/163.jpg,50,GZ,001,2020-11-21_14h45.23.143,test1,2020.2.5,Win32,60,,,0,49,49,49,1
,,,,m,0.28197,,,,,,flowers/images/224.jpg,flowers/images/278.jpg,51,GZ,001,2020-11-21_14h45.23.143,test1,2020.2.5,Win32,60,,,0,50,50,50,1
,,,,m,2.3662,,,,,,flowers/images/312.jpg,flowers/images/185.jpg,52,GZ,001,2020-11-21_14h45.23.143,test1,2020.2.5,Win32,60,,,0,51,51,51,1
,,,,z,2.04942,,,,,,flowers/images/256.jpg,flowers/images/112.jpg,53,GZ,001,2020-11-21_14h45.23.143,test1,2020.2.5,Win32,60,,,0,52,52,52,1
,,,,m,1.28162,,,,,,flowers/images/26.jpg,flowers/images/261.jpg,54,GZ,001,2020-11-21_14h45.23.143,test1,2020.2.5,Win32,60,,,0,53,53,53,1
,,,,z,2.08365,,,,,,flowers/images/51.jpg,flowers/images/106.jpg,55,GZ,001,2020-11-21_14h45.23.143,test1,2020.2.5,Win32,60,,,0,54,54,54,1
,,,,z,1.282795,,,,,,flowers/images/371.jpg,flowers/images/160.jpg,56,GZ,001,2020-11-21_14h45.23.143,test1,2020.2.5,Win32,60,,,0,55,55,55,1
,,,,m,2.73749,,,,,,flowers/images/59.jpg,flowers/images/257.jpg,57,GZ,001,2020-11-21_14h45.23.143,test1,2020.2.5,Win32,60,,,0,56,56,56,1
,,,,z,2.41505,,,,,,flowers/images/347.jpg,flowers/images/190.jpg,58,GZ,001,2020-11-21_14h45.23.143,test1,2020.2.5,Win32,60,,,0,57,57,57,1
,,,,z,1.91897,,,,,,flowers/images/8.jpg,flowers/images/209.jpg,59,GZ,001,2020-11-21_14h45.23.143,test1,2020.2.5,Win32,60,,,0,58,58,58,1
,,,,z,4.29902,,,,,,flowers/images/278.jpg,flowers/images/31.jpg,60,GZ,001,2020-11-21_14h45.23.143,test1,2020.2.5,Win32,60,,,0,59,59,59,1
,,,,m,1.08652,,,,,,flowers/images/262.jpg,flowers/images/325.jpg,61,GZ,001,2020-11-21_14h45.23.143,test1,2020.2.5,Win32,60,,,0,60,60,60,1
,,,,m,1.056125,,,,,,flowers/images/273.jpg,flowers/images/83.jpg,62,GZ,001,2020-11-21_14h45.23.143,test1,2020.2.5,Win32,60,,,0,61,61,61,1
,,,,m,1.29714,,,,,,flowers/images/52.jpg,flowers/images/17.jpg,63,GZ,001,2020-11-21_14h45.23.143,test1,2020.2.5,Win32,60,,,0,62,62,62,1
,,,,z,1.76466,,,,,,flowers/images/243.jpg,flowers/images/27.jpg,64,GZ,001,2020-11-21_14h45.23.143,test1,2020.2.5,Win32,60,,,0,63,63,63,1
,,,,m,1.18358,,,,,,flowers/images/175.jpg,flowers/images/192.jpg,65,GZ,001,2020-11-21_14h45.23.143,test1,2020.2.5,Win32,60,,,0,64,64,64,1
,,,,z,1.587175,,,,,,flowers/images/53.jpg,flowers/images/199.jpg,66,GZ,001,2020-11-21_14h45.23.143,test1,2020.2.5,Win32,60,,,0,65,65,65,1
,,,,z,2.46505,,,,,,flowers/images/316.jpg,flowers/images/381.jpg,67,GZ,001,2020-11-21_14h45.23.143,test1,2020.2.5,Win32,60,,,0,66,66,66,1
,,,,z,1.382785,,,,,,flowers/images/249.jpg,flowers/images/213.jpg,68,GZ,001,2020-11-21_14h45.23.143,test1,2020.2.5,Win32,60,,,0,67,67,67,1
,,,,z,1.650085,,,,,,flowers/images/70.jpg,flowers/images/60.jpg,69,GZ,001,2020-11-21_14h45.23.143,test1,2020.2.5,Win32,60,,,0,68,68,68,1
,,,,m,2.764765,,,,,,flowers/images/300.jpg,flowers/images/386.jpg,70,GZ,001,2020-11-21_14h45.23.143,test1,2020.2.5,Win32,60,,,0,69,69,69,1
,,,,m,1.46556,,,,,,flowers/images/162.jpg,flowers/images/149.jpg,71,GZ,001,2020-11-21_14h45.23.143,test1,2020.2.5,Win32,60,,,0,70,70,70,1
,,,,z,2.01743,,,,,,flowers/images/146.jpg,flowers/images/336.jpg,72,GZ,001,2020-11-21_14h45.23.143,test1,2020.2.5,Win32,60,,,0,71,71,71,1
,,,,m,1.31954,,,,,,flowers/images/115.jpg,flowers/images/120.jpg,73,GZ,001,2020-11-21_14h45.23.143,test1,2020.2.5,Win32,60,,,0,72,72,72,1
,,,,m,2.46644,,,,,,flowers/images/311.jpg,flowers/images/123.jpg,74,GZ,001,2020-11-21_14h45.23.143,test1,2020.2.5,Win32,60,,,0,73,73,73,1
,,,,z,1.25377,,,,,,flowers/images/33.jpg,flowers/images/146.jpg,75,GZ,001,2020-11-21_14h45.23.143,test1,2020.2.5,Win32,60,,,0,74,74,74,1
,,,,m,4.933275,,,,,,flowers/images/78.jpg,flowers/images/352.jpg,76,GZ,001,2020-11-21_14h45.23.143,test1,2020.2.5,Win32,60,,,0,75,75,75,1
,,,,m,1.48177,,,,,,flowers/images/43.jpg,flowers/images/50.jpg,77,GZ,001,2020-11-21_14h45.23.143,test1,2020.2.5,Win32,60,,,0,76,76,76,1
,,,,z,1.069635,,,,,,flowers/images/373.jpg,flowers/images/78.jpg,78,GZ,001,2020-11-21_14h45.23.143,test1,2020.2.5,Win32,60,,,0,77,77,77,1
,,,,z,2.182275,,,,,,flowers/images/233.jpg,flowers/images/134.jpg,79,GZ,001,2020-11-21_14h45.23.143,test1,2020.2.5,Win32,60,,,0,78,78,78,1
,,,,z,1.79077,,,,,,flowers/images/386.jpg,flowers/images/390.jpg,80,GZ,001,2020-11-21_14h45.23.143,test1,2020.2.5,Win32,60,,,0,79,79,79,1
,,,,m,1.818155,,,,,,flowers/images/205.jpg,flowers/images/388.jpg,81,GZ,001,2020-11-21_14h45.23.143,test1,2020.2.5,Win32,60,,,0,80,80,80,1
,,,,m,3.28388,,,,,,flowers/images/130.jpg,flowers/images/48.jpg,82,GZ,001,2020-11-21_14h45.23.143,test1,2020.2.5,Win32,60,,,0,81,81,81,1
,,,,z,1.88454,,,,,,flowers/images/187.jpg,flowers/images/253.jpg,83,GZ,001,2020-11-21_14h45.23.143,test1,2020.2.5,Win32,60,,,0,82,82,82,1
,,,,z,2.133245,,,,,,flowers/images/232.jpg,flowers/images/141.jpg,84,GZ,001,2020-11-21_14h45.23.143,test1,2020.2.5,Win32,60,,,0,83,83,83,1
,,,,z,1.348425,,,,,,flowers/images/253.jpg,flowers/images/71.jpg,85,GZ,001,2020-11-21_14h45.23.143,test1,2020.2.5,Win32,60,,,0,84,84,84,1
,,,,m,1.574645,,,,,,flowers/images/332.jpg,flowers/images/322.jpg,86,GZ,001,2020-11-21_14h45.23.143,test1,2020.2.5,Win32,60,,,0,85,85,85,1
,,,,z,1.45207,,,,,,flowers/images/103.jpg,flowers/images/182.jpg,87,GZ,001,2020-11-21_14h45.23.143,test1,2020.2.5,Win32,60,,,0,86,86,86,1
,,,,m,1.923305,,,,,,flowers/images/271.jpg,flowers/images/103.jpg,88,GZ,001,2020-11-21_14h45.23.143,test1,2020.2.5,Win32,60,,,0,87,87,87,1
,,,,z,4.248505,,,,,,flowers/images/63.jpg,flowers/images/227.jpg,89,GZ,001,2020-11-21_14h45.23.143,test1,2020.2.5,Win32,60,,,0,88,88,88,1
,,,,m,1.85112,,,,,,flowers/images/382.jpg,flowers/images/359.jpg,90,GZ,001,2020-11-21_14h45.23.143,test1,2020.2.5,Win32,60,,,0,89,89,89,1
,,,,z,2.051895,,,,,,flowers/images/252.jpg,flowers/images/87.jpg,91,GZ,001,2020-11-21_14h45.23.143,test1,2020.2.5,Win32,60,,,0,90,90,90,1
,,,,m,1.715775,,,,,,flowers/images/101.jpg,flowers/images/196.jpg,92,GZ,001,2020-11-21_14h45.23.143,test1,2020.2.5,Win32,60,,,0,91,91,91,1
,,,,m,1.120305,,,,,,flowers/images/104.jpg,flowers/images/270.jpg,93,GZ,001,2020-11-21_14h45.23.143,test1,2020.2.5,Win32,60,,,0,92,92,92,1
,,,,z,1.216225,,,,,,flowers/images/270.jpg,flowers/images/108.jpg,94,GZ,001,2020-11-21_14h45.23.143,test1,2020.2.5,Win32,60,,,0,93,93,93,1
,,,,z,1.30101,,,,,,flowers/images/0.jpg,flowers/images/143.jpg,95,GZ,001,2020-11-21_14h45.23.143,test1,2020.2.5,Win32,60,,,0,94,94,94,1
,,,,z,1.55113,,,,,,flowers/images/348.jpg,flowers/images/276.jpg,96,GZ,001,2020-11-21_14h45.23.143,test1,2020.2.5,Win32,60,,,0,95,95,95,1
,,,,z,1.12023,,,,,,flowers/images/251.jpg,flowers/images/55.jpg,97,GZ,001,2020-11-21_14h45.23.143,test1,2020.2.5,Win32,60,,,0,96,96,96,1
,,,,z,1.29898,,,,,,flowers/images/119.jpg,flowers/images/43.jpg,98,GZ,001,2020-11-21_14h45.23.143,test1,2020.2.5,Win32,60,,,0,97,97,97,1
,,,,z,1.339095,,,,,,flowers/images/158.jpg,flowers/images/46.jpg,99,GZ,001,2020-11-21_14h45.23.143,test1,2020.2.5,Win32,60,,,0,98,98,98,1
,,,,z,2.47015,,,,,,flowers/images/297.jpg,flowers/images/205.jpg,100,GZ,001,2020-11-21_14h45.23.143,test1,2020.2.5,Win32,60,,,0,99,99,99,1
,,,,m,1.19034,,,,,,flowers/images/25.jpg,flowers/images/54.jpg,101,GZ,001,2020-11-21_14h45.23.143,test1,2020.2.5,Win32,60,,,0,100,100,100,1
,,,,z,1.847615,,,,,,flowers/images/67.jpg,flowers/images/331.jpg,102,GZ,001,2020-11-21_14h45.23.143,test1,2020.2.5,Win32,60,,,0,101,101,101,1
,,,,z,3.171365,,,,,,flowers/images/366.jpg,flowers/images/372.jpg,103,GZ,001,2020-11-21_14h45.23.143,test1,2020.2.5,Win32,60,,,0,102,102,102,1
,,,,z,2.387675,,,,,,flowers/images/4.jpg,flowers/images/220.jpg,104,GZ,001,2020-11-21_14h45.23.143,test1,2020.2.5,Win32,60,,,0,103,103,103,1
,,,,z,1.56516,,,,,,flowers/images/90.jpg,flowers/images/148.jpg,105,GZ,001,2020-11-21_14h45.23.143,test1,2020.2.5,Win32,60,,,0,104,104,104,1
,,,,m,2.266315,,,,,,flowers/images/198.jpg,flowers/images/380.jpg,106,GZ,001,2020-11-21_14h45.23.143,test1,2020.2.5,Win32,60,,,0,105,105,105,1
,,,,m,2.220705,,,,,,flowers/images/375.jpg,flowers/images/362.jpg,107,GZ,001,2020-11-21_14h45.23.143,test1,2020.2.5,Win32,60,,,0,106,106,106,1
,,,,z,1.88352,,,,,,flowers/images/372.jpg,flowers/images/98.jpg,108,GZ,001,2020-11-21_14h45.23.143,test1,2020.2.5,Win32,60,,,0,107,107,107,1
,,,,z,1.85032,,,,,,flowers/images/364.jpg,flowers/images/12.jpg,109,GZ,001,2020-11-21_14h45.23.143,test1,2020.2.5,Win32,60,,,0,108,108,108,1
,,,,z,2.582125,,,,,,flowers/images/176.jpg,flowers/images/316.jpg,110,GZ,001,2020-11-21_14h45.23.143,test1,2020.2.5,Win32,60,,,0,109,109,109,1
,,,,m,2.04821,,,,,,flowers/images/48.jpg,flowers/images/75.jpg,111,GZ,001,2020-11-21_14h45.23.143,test1,2020.2.5,Win32,60,,,0,110,110,110,1
,,,,z,2.172635,,,,,,flowers/images/188.jpg,flowers/images/8.jpg,112,GZ,001,2020-11-21_14h45.23.143,test1,2020.2.5,Win32,60,,,0,111,111,111,1
,,,,z,1.71613,,,,,,flowers/images/288.jpg,flowers/images/251.jpg,113,GZ,001,2020-11-21_14h45.23.143,test1,2020.2.5,Win32,60,,,0,112,112,112,1
,,,,z,3.68483,,,,,,flowers/images/349.jpg,flowers/images/282.jpg,114,GZ,001,2020-11-21_14h45.23.143,test1,2020.2.5,Win32,60,,,0,113,113,113,1
,,,,z,2.18763,,,,,,flowers/images/135.jpg,flowers/images/172.jpg,115,GZ,001,2020-11-21_14h45.23.143,test1,2020.2.5,Win32,60,,,0,114,114,114,1
,,,,m,1.980725,,,,,,flowers/images/283.jpg,flowers/images/139.jpg,116,GZ,001,2020-11-21_14h45.23.143,test1,2020.2.5,Win32,60,,,0,115,115,115,1
,,,,m,1.582525,,,,,,flowers/images/301.jpg,flowers/images/102.jpg,117,GZ,001,2020-11-21_14h45.23.143,test1,2020.2.5,Win32,60,,,0,116,116,116,1
,,,,m,1.93205,,,,,,flowers/images/164.jpg,flowers/images/392.jpg,118,GZ,001,2020-11-21_14h45.23.143,test1,2020.2.5,Win32,60,,,0,117,117,117,1
,,,,z,1.64972,,,,,,flowers/images/385.jpg,flowers/images/244.jpg,119,GZ,001,2020-11-21_14h45.23.143,test1,2020.2.5,Win32,60,,,0,118,118,118,1
,,,,m,2.3989,,,,,,flowers/images/137.jpg,flowers/images/104.jpg,120,GZ,001,2020-11-21_14h45.23.143,test1,2020.2.5,Win32,60,,,0,119,119,119,1
,,,,z,2.081855,,,,,,flowers/images/23.jpg,flowers/images/157.jpg,121,GZ,001,2020-11-21_14h45.23.143,test1,2020.2.5,Win32,60,,,0,120,120,120,1
,,,,m,1.19885,,,,,,flowers/images/310.jpg,flowers/images/238.jpg,122,GZ,001,2020-11-21_14h45.23.143,test1,2020.2.5,Win32,60,,,0,121,121,121,1
,,,,m,2.217655,,,,,,flowers/images/215.jpg,flowers/images/222.jpg,123,GZ,001,2020-11-21_14h45.23.143,test1,2020.2.5,Win32,60,,,0,122,122,122,1
,,,,m,0.949885,,,,,,flowers/images/244.jpg,flowers/images/274.jpg,124,GZ,001,2020-11-21_14h45.23.143,test1,2020.2.5,Win32,60,,,0,123,123,123,1
,,,,z,1.804395,,,,,,flowers/images/313.jpg,flowers/images/329.jpg,125,GZ,001,2020-11-21_14h45.23.143,test1,2020.2.5,Win32,60,,,0,124,124,124,1
,,,,z,1.88328,,,,,,flowers/images/207.jpg,flowers/images/188.jpg,126,GZ,001,2020-11-21_14h45.23.143,test1,2020.2.5,Win32,60,,,0,125,125,125,1
,,,,z,2.9183,,,,,,flowers/images/265.jpg,flowers/images/351.jpg,127,GZ,001,2020-11-21_14h45.23.143,test1,2020.2.5,Win32,60,,,0,126,126,126,1
,,,,m,0.990345,,,,,,flowers/images/248.jpg,flowers/images/239.jpg,128,GZ,001,2020-11-21_14h45.23.143,test1,2020.2.5,Win32,60,,,0,127,127,127,1
,,,,z,1.053075,,,,,,flowers/images/204.jpg,flowers/images/225.jpg,129,GZ,001,2020-11-21_14h45.23.143,test1,2020.2.5,Win32,60,,,0,128,128,128,1
,,,,m,1.06633,,,,,,flowers/images/13.jpg,flowers/images/119.jpg,130,GZ,001,2020-11-21_14h45.23.143,test1,2020.2.5,Win32,60,,,0,129,129,129,1
,,,,m,1.519925,,,,,,flowers/images/370.jpg,flowers/images/39.jpg,131,GZ,001,2020-11-21_14h45.23.143,test1,2020.2.5,Win32,60,,,0,130,130,130,1
,,,,z,1.417065,,,,,,flowers/images/397.jpg,flowers/images/69.jpg,132,GZ,001,2020-11-21_14h45.23.143,test1,2020.2.5,Win32,60,,,0,131,131,131,1
,,,,m,3.068185,,,,,,flowers/images/393.jpg,flowers/images/399.jpg,133,GZ,001,2020-11-21_14h45.23.143,test1,2020.2.5,Win32,60,,,0,132,132,132,1
,,,,z,1.500135,,,,,,flowers/images/363.jpg,flowers/images/74.jpg,134,GZ,001,2020-11-21_14h45.23.143,test1,2020.2.5,Win32,60,,,0,133,133,133,1
,,,,m,1.785085,,,,,,flowers/images/254.jpg,flowers/images/174.jpg,135,GZ,001,2020-11-21_14h45.23.143,test1,2020.2.5,Win32,60,,,0,134,134,134,1
,,,,m,6.8491,,,,,,flowers/images/139.jpg,flowers/images/70.jpg,136,GZ,001,2020-11-21_14h45.23.143,test1,2020.2.5,Win32,60,,,0,135,135,135,1
,,,,m,2.06529,,,,,,flowers/images/95.jpg,flowers/images/315.jpg,137,GZ,001,2020-11-21_14h45.23.143,test1,2020.2.5,Win32,60,,,0,136,136,136,1
,,,,m,1.233515,,,,,,flowers/images/294.jpg,flowers/images/334.jpg,138,GZ,001,2020-11-21_14h45.23.143,test1,2020.2.5,Win32,60,,,0,137,137,137,1
,,,,z,1.655115,,,,,,flowers/images/174.jpg,flowers/images/171.jpg,139,GZ,001,2020-11-21_14h45.23.143,test1,2020.2.5,Win32,60,,,0,138,138,138,1
,,,,m,1.500565,,,,,,flowers/images/57.jpg,flowers/images/326.jpg,140,GZ,001,2020-11-21_14h45.23.143,test1,2020.2.5,Win32,60,,,0,139,139,139,1
,,,,z,1.903535,,,,,,flowers/images/246.jpg,flowers/images/82.jpg,141,GZ,001,2020-11-21_14h45.23.143,test1,2020.2.5,Win32,60,,,0,140,140,140,1
,,,,m,2.456785,,,,,,flowers/images/16.jpg,flowers/images/45.jpg,142,GZ,001,2020-11-21_14h45.23.143,test1,2020.2.5,Win32,60,,,0,141,141,141,1
,,,,z,1.31698,,,,,,flowers/images/380.jpg,flowers/images/150.jpg,143,GZ,001,2020-11-21_14h45.23.143,test1,2020.2.5,Win32,60,,,0,142,142,142,1
,,,,m,1.37056,,,,,,flowers/images/109.jpg,flowers/images/350.jpg,144,GZ,001,2020-11-21_14h45.23.143,test1,2020.2.5,Win32,60,,,0,143,143,143,1
,,,,m,1.74179,,,,,,flowers/images/223.jpg,flowers/images/366.jpg,145,GZ,001,2020-11-21_14h45.23.143,test1,2020.2.5,Win32,60,,,0,144,144,144,1
,,,,z,1.808655,,,,,,flowers/images/60.jpg,flowers/images/194.jpg,146,GZ,001,2020-11-21_14h45.23.143,test1,2020.2.5,Win32,60,,,0,145,145,145,1
,,,,z,1.2038,,,,,,flowers/images/268.jpg,flowers/images/332.jpg,147,GZ,001,2020-11-21_14h45.23.143,test1,2020.2.5,Win32,60,,,0,146,146,146,1
,,,,z,3.352,,,,,,flowers/images/388.jpg,flowers/images/319.jpg,148,GZ,001,2020-11-21_14h45.23.143,test1,2020.2.5,Win32,60,,,0,147,147,147,1
,,,,z,2.383835,,,,,,flowers/images/356.jpg,flowers/images/337.jpg,149,GZ,001,2020-11-21_14h45.23.143,test1,2020.2.5,Win32,60,,,0,148,148,148,1
,,,,m,1.76699,,,,,,flowers/images/384.jpg,flowers/images/344.jpg,150,GZ,001,2020-11-21_14h45.23.143,test1,2020.2.5,Win32,60,,,0,149,149,149,1
,,,,m,2.649625,,,,,,flowers/images/333.jpg,flowers/images/346.jpg,151,GZ,001,2020-11-21_14h45.23.143,test1,2020.2.5,Win32,60,,,0,150,150,150,1
,,,,m,1.599395,,,,,,flowers/images/24.jpg,flowers/images/116.jpg,152,GZ,001,2020-11-21_14h45.23.143,test1,2020.2.5,Win32,60,,,0,151,151,151,1
,,,,m,1.59889,,,,,,flowers/images/220.jpg,flowers/images/235.jpg,153,GZ,001,2020-11-21_14h45.23.143,test1,2020.2.5,Win32,60,,,0,152,152,152,1
,,,,z,1.59906,,,,,,flowers/images/269.jpg,flowers/images/198.jpg,154,GZ,001,2020-11-21_14h45.23.143,test1,2020.2.5,Win32,60,,,0,153,153,153,1
,,,,z,2.615675,,,,,,flowers/images/107.jpg,flowers/images/1.jpg,155,GZ,001,2020-11-21_14h45.23.143,test1,2020.2.5,Win32,60,,,0,154,154,154,1
,,,,m,1.831905,,,,,,flowers/images/314.jpg,flowers/images/147.jpg,156,GZ,001,2020-11-21_14h45.23.143,test1,2020.2.5,Win32,60,,,0,155,155,155,1
,,,,z,1.30474,,,,,,flowers/images/117.jpg,flowers/images/258.jpg,157,GZ,001,2020-11-21_14h45.23.143,test1,2020.2.5,Win32,60,,,0,156,156,156,1
,,,,m,1.431955,,,,,,flowers/images/41.jpg,flowers/images/214.jpg,158,GZ,001,2020-11-21_14h45.23.143,test1,2020.2.5,Win32,60,,,0,157,157,157,1
,,,,m,1.482695,,,,,,flowers/images/306.jpg,flowers/images/118.jpg,159,GZ,001,2020-11-21_14h45.23.143,test1,2020.2.5,Win32,60,,,0,158,158,158,1
,,,,z,0.807205,,,,,,flowers/images/299.jpg,flowers/images/40.jpg,160,GZ,001,2020-11-21_14h45.23.143,test1,2020.2.5,Win32,60,,,0,159,159,159,1
,,,,z,0.967985,,,,,,flowers/images/50.jpg,flowers/images/291.jpg,161,GZ,001,2020-11-21_14h45.23.143,test1,2020.2.5,Win32,60,,,0,160,160,160,1
,,,,z,2.48275,,,,,,flowers/images/238.jpg,flowers/images/129.jpg,162,GZ,001,2020-11-21_14h45.23.143,test1,2020.2.5,Win32,60,,,0,161,161,161,1
,,,,m,2.01691,,,,,,flowers/images/30.jpg,flowers/images/136.jpg,163,GZ,001,2020-11-21_14h45.23.143,test1,2020.2.5,Win32,60,,,0,162,162,162,1
,,,,z,2.28364,,,,,,flowers/images/211.jpg,flowers/images/306.jpg,164,GZ,001,2020-11-21_14h45.23.143,test1,2020.2.5,Win32,60,,,0,163,163,163,1
,,,,z,1.482645,,,,,,flowers/images/227.jpg,flowers/images/57.jpg,165,GZ,001,2020-11-21_14h45.23.143,test1,2020.2.5,Win32,60,,,0,164,164,164,1
,,,,z,2.148325,,,,,,flowers/images/242.jpg,flowers/images/61.jpg,166,GZ,001,2020-11-21_14h45.23.143,test1,2020.2.5,Win32,60,,,0,165,165,165,1
,,,,z,1.834025,,,,,,flowers/images/387.jpg,flowers/images/263.jpg,167,GZ,001,2020-11-21_14h45.23.143,test1,2020.2.5,Win32,60,,,0,166,166,166,1
,,,,z,3.098475,,,,,,flowers/images/193.jpg,flowers/images/367.jpg,168,GZ,001,2020-11-21_14h45.23.143,test1,2020.2.5,Win32,60,,,0,167,167,167,1
,,,,m,1.68351,,,,,,flowers/images/231.jpg,flowers/images/18.jpg,169,GZ,001,2020-11-21_14h45.23.143,test1,2020.2.5,Win32,60,,,0,168,168,168,1
,,,,m,2.98555,,,,,,flowers/images/154.jpg,flowers/images/32.jpg,170,GZ,001,2020-11-21_14h45.23.143,test1,2020.2.5,Win32,60,,,0,169,169,169,1
,,,,z,3.19989,,,,,,flowers/images/79.jpg,flowers/images/301.jpg,171,GZ,001,2020-11-21_14h45.23.143,test1,2020.2.5,Win32,60,,,0,170,170,170,1
,,,,z,1.982825,,,,,,flowers/images/263.jpg,flowers/images/210.jpg,172,GZ,001,2020-11-21_14h45.23.143,test1,2020.2.5,Win32,60,,,0,171,171,171,1
,,,,z,1.98487,,,,,,flowers/images/383.jpg,flowers/images/354.jpg,173,GZ,001,2020-11-21_14h45.23.143,test1,2020.2.5,Win32,60,,,0,172,172,172,1
,,,,z,3.21851,,,,,,flowers/images/290.jpg,flowers/images/212.jpg,174,GZ,001,2020-11-21_14h45.23.143,test1,2020.2.5,Win32,60,,,0,173,173,173,1
,,,,m,2.481505,,,,,,flowers/images/206.jpg,flowers/images/397.jpg,175,GZ,001,2020-11-21_14h45.23.143,test1,2020.2.5,Win32,60,,,0,174,174,174,1
,,,,z,1.51714,,,,,,flowers/images/317.jpg,flowers/images/297.jpg,176,GZ,001,2020-11-21_14h45.23.143,test1,2020.2.5,Win32,60,,,0,175,175,175,1
,,,,m,1.306035,,,,,,flowers/images/329.jpg,flowers/images/255.jpg,177,GZ,001,2020-11-21_14h45.23.143,test1,2020.2.5,Win32,60,,,0,176,176,176,1
,,,,z,1.983295,,,,,,flowers/images/225.jpg,flowers/images/91.jpg,178,GZ,001,2020-11-21_14h45.23.143,test1,2020.2.5,Win32,60,,,0,177,177,177,1
,,,,m,1.83278,,,,,,flowers/images/11.jpg,flowers/images/256.jpg,179,GZ,001,2020-11-21_14h45.23.143,test1,2020.2.5,Win32,60,,,0,178,178,178,1
,,,,m,3.698985,,,,,,flowers/images/234.jpg,flowers/images/64.jpg,180,GZ,001,2020-11-21_14h45.23.143,test1,2020.2.5,Win32,60,,,0,179,179,179,1
,,,,z,1.16975,,,,,,flowers/images/342.jpg,flowers/images/26.jpg,181,GZ,001,2020-11-21_14h45.23.143,test1,2020.2.5,Win32,60,,,0,180,180,180,1
,,,,m,4.76575,,,,,,flowers/images/391.jpg,flowers/images/286.jpg,182,GZ,001,2020-11-21_14h45.23.143,test1,2020.2.5,Win32,60,,,0,181,181,181,1
,,,,m,1.783235,,,,,,flowers/images/221.jpg,flowers/images/268.jpg,183,GZ,001,2020-11-21_14h45.23.143,test1,2020.2.5,Win32,60,,,0,182,182,182,1
,,,,m,1.2692,,,,,,flowers/images/210.jpg,flowers/images/84.jpg,184,GZ,001,2020-11-21_14h45.23.143,test1,2020.2.5,Win32,60,,,0,183,183,183,1
,,,,z,3.00032,,,,,,flowers/images/138.jpg,flowers/images/77.jpg,185,GZ,001,2020-11-21_14h45.23.143,test1,2020.2.5,Win32,60,,,0,184,184,184,1
,,,,m,1.351185,,,,,,flowers/images/315.jpg,flowers/images/269.jpg,186,GZ,001,2020-11-21_14h45.23.143,test1,2020.2.5,Win32,60,,,0,185,185,185,1
,,,,m,1.2522,,,,,,flowers/images/308.jpg,flowers/images/265.jpg,187,GZ,001,2020-11-21_14h45.23.143,test1,2020.2.5,Win32,60,,,0,186,186,186,1
,,,,z,2.100955,,,,,,flowers/images/88.jpg,flowers/images/56.jpg,188,GZ,001,2020-11-21_14h45.23.143,test1,2020.2.5,Win32,60,,,0,187,187,187,1
,,,,z,0.94987,,,,,,flowers/images/102.jpg,flowers/images/126.jpg,189,GZ,001,2020-11-21_14h45.23.143,test1,2020.2.5,Win32,60,,,0,188,188,188,1
,,,,m,1.52397,,,,,,flowers/images/132.jpg,flowers/images/389.jpg,190,GZ,001,2020-11-21_14h45.23.143,test1,2020.2.5,Win32,60,,,0,189,189,189,1
,,,,z,1.03257,,,,,,flowers/images/186.jpg,flowers/images/144.jpg,191,GZ,001,2020-11-21_14h45.23.143,test1,2020.2.5,Win32,60,,,0,190,190,190,1
,,,,m,1.701265,,,,,,flowers/images/284.jpg,flowers/images/92.jpg,192,GZ,001,2020-11-21_14h45.23.143,test1,2020.2.5,Win32,60,,,0,191,191,191,1
,,,,z,1.717295,,,,,,flowers/images/396.jpg,flowers/images/24.jpg,193,GZ,001,2020-11-21_14h45.23.143,test1,2020.2.5,Win32,60,,,0,192,192,192,1
,,,,m,1.784495,,,,,,flowers/images/374.jpg,flowers/images/287.jpg,194,GZ,001,2020-11-21_14h45.23.143,test1,2020.2.5,Win32,60,,,0,193,193,193,1
,,,,m,1.865265,,,,,,flowers/images/140.jpg,flowers/images/267.jpg,195,GZ,001,2020-11-21_14h45.23.143,test1,2020.2.5,Win32,60,,,0,194,194,194,1
,,,,z,1.757645,,,,,,flowers/images/267.jpg,flowers/images/343.jpg,196,GZ,001,2020-11-21_14h45.23.143,test1,2020.2.5,Win32,60,,,0,195,195,195,1
,,,,m,2.33904,,,,,,flowers/images/286.jpg,flowers/images/35.jpg,197,GZ,001,2020-11-21_14h45.23.143,test1,2020.2.5,Win32,60,,,0,196,196,196,1
,,,,m,2.070945,,,,,,flowers/images/143.jpg,flowers/images/391.jpg,198,GZ,001,2020-11-21_14h45.23.143,test1,2020.2.5,Win32,60,,,0,197,197,197,1
,,,,z,1.099455,,,,,,flowers/images/196.jpg,flowers/images/155.jpg,199,GZ,001,2020-11-21_14h45.23.143,test1,2020.2.5,Win32,60,,,0,198,198,198,1
,,,,z,1.19107,,,,,,flowers/images/281.jpg,flowers/images/394.jpg,200,GZ,001,2020-11-21_14h45.23.143,test1,2020.2.5,Win32,60,,,0,199,199,199,1
