key_resp.keys,key_resp.rt,key_resp_3.keys,key_resp_3.rt,key_resp_2.keys,key_resp_2.rt,trials.thisRepN,trials.thisTrialN,trials.thisN,trials.thisIndex,trials.ran,image_left,image_right,trial_num,participant,session,date,expName,psychopyVersion,OS,frameRate,key_resp_4.keys,key_resp_4.rt,trials_2.thisRepN,trials_2.thisTrialN,trials_2.thisN,trials_2.thisIndex,trials_2.ran
space,10.082605,space,9.102725,m,7.58224,0,0,0,0,1,flowers/images/125.jpg,flowers/images/165.jpg,1,kevin,001,2020-11-21_16h35.15.198,test1,2020.2.5,Win32,60,,,,,,,
,,,,m,1.841135,0,1,1,1,1,flowers/images/168.jpg,flowers/images/195.jpg,2,kevin,001,2020-11-21_16h35.15.198,test1,2020.2.5,Win32,60,,,,,,,
,,,,m,2.7119,0,2,2,2,1,flowers/images/114.jpg,flowers/images/131.jpg,3,kevin,001,2020-11-21_16h35.15.198,test1,2020.2.5,Win32,60,,,,,,,
,,,,m,1.773235,0,3,3,3,1,flowers/images/110.jpg,flowers/images/241.jpg,4,kevin,001,2020-11-21_16h35.15.198,test1,2020.2.5,Win32,60,,,,,,,
,,,,z,1.324605,0,4,4,4,1,flowers/images/157.jpg,flowers/images/170.jpg,5,kevin,001,2020-11-21_16h35.15.198,test1,2020.2.5,Win32,60,,,,,,,
,,,,z,1.349135,0,5,5,5,1,flowers/images/291.jpg,flowers/images/302.jpg,6,kevin,001,2020-11-21_16h35.15.198,test1,2020.2.5,Win32,60,,,,,,,
,,,,m,4.198585,0,6,6,6,1,flowers/images/335.jpg,flowers/images/272.jpg,7,kevin,001,2020-11-21_16h35.15.198,test1,2020.2.5,Win32,60,,,,,,,
,,,,z,1.540845,0,7,7,7,1,flowers/images/122.jpg,flowers/images/72.jpg,8,kevin,001,2020-11-21_16h35.15.198,test1,2020.2.5,Win32,60,,,,,,,
,,,,m,1.143875,0,8,8,8,1,flowers/images/240.jpg,flowers/images/67.jpg,9,kevin,001,2020-11-21_16h35.15.198,test1,2020.2.5,Win32,60,,,,,,,
,,,,z,1.79879,0,9,9,9,1,flowers/images/324.jpg,flowers/images/180.jpg,10,kevin,001,2020-11-21_16h35.15.198,test1,2020.2.5,Win32,60,,,,,,,
,,,,z,1.254805,0,10,10,10,1,flowers/images/148.jpg,flowers/images/275.jpg,11,kevin,001,2020-11-21_16h35.15.198,test1,2020.2.5,Win32,60,,,,,,,
,,,,z,2.75592,0,11,11,11,1,flowers/images/61.jpg,flowers/images/2.jpg,12,kevin,001,2020-11-21_16h35.15.198,test1,2020.2.5,Win32,60,,,,,,,
,,,,z,1.459905,0,12,12,12,1,flowers/images/20.jpg,flowers/images/378.jpg,13,kevin,001,2020-11-21_16h35.15.198,test1,2020.2.5,Win32,60,,,,,,,
,,,,z,2.24349,0,13,13,13,1,flowers/images/181.jpg,flowers/images/363.jpg,14,kevin,001,2020-11-21_16h35.15.198,test1,2020.2.5,Win32,60,,,,,,,
,,,,m,2.63288,0,14,14,14,1,flowers/images/87.jpg,flowers/images/187.jpg,15,kevin,001,2020-11-21_16h35.15.198,test1,2020.2.5,Win32,60,,,,,,,
,,,,m,1.364035,0,15,15,15,1,flowers/images/150.jpg,flowers/images/281.jpg,16,kevin,001,2020-11-21_16h35.15.198,test1,2020.2.5,Win32,60,,,,,,,
,,,,z,1.02756,0,16,16,16,1,flowers/images/112.jpg,flowers/images/176.jpg,17,kevin,001,2020-11-21_16h35.15.198,test1,2020.2.5,Win32,60,,,,,,,
,,,,m,1.261175,0,17,17,17,1,flowers/images/236.jpg,flowers/images/243.jpg,18,kevin,001,2020-11-21_16h35.15.198,test1,2020.2.5,Win32,60,,,,,,,
,,,,z,1.747195,0,18,18,18,1,flowers/images/133.jpg,flowers/images/247.jpg,19,kevin,001,2020-11-21_16h35.15.198,test1,2020.2.5,Win32,60,,,,,,,
,,,,m,5.229215,0,19,19,19,1,flowers/images/136.jpg,flowers/images/164.jpg,20,kevin,001,2020-11-21_16h35.15.198,test1,2020.2.5,Win32,60,,,,,,,
,,,,z,1.64158,0,20,20,20,1,flowers/images/185.jpg,flowers/images/211.jpg,21,kevin,001,2020-11-21_16h35.15.198,test1,2020.2.5,Win32,60,,,,,,,
,,,,z,2.355255,0,21,21,21,1,flowers/images/118.jpg,flowers/images/371.jpg,22,kevin,001,2020-11-21_16h35.15.198,test1,2020.2.5,Win32,60,,,,,,,
,,,,m,0.872415,0,22,22,22,1,flowers/images/177.jpg,flowers/images/5.jpg,23,kevin,001,2020-11-21_16h35.15.198,test1,2020.2.5,Win32,60,,,,,,,
,,,,m,1.096595,0,23,23,23,1,flowers/images/91.jpg,flowers/images/215.jpg,24,kevin,001,2020-11-21_16h35.15.198,test1,2020.2.5,Win32,60,,,,,,,
,,,,m,0.895195,0,24,24,24,1,flowers/images/277.jpg,flowers/images/11.jpg,25,kevin,001,2020-11-21_16h35.15.198,test1,2020.2.5,Win32,60,,,,,,,
,,,,z,0.655085,0,25,25,25,1,flowers/images/197.jpg,flowers/images/25.jpg,26,kevin,001,2020-11-21_16h35.15.198,test1,2020.2.5,Win32,60,,,,,,,
,,,,m,1.459655,0,26,26,26,1,flowers/images/131.jpg,flowers/images/63.jpg,27,kevin,001,2020-11-21_16h35.15.198,test1,2020.2.5,Win32,60,,,,,,,
,,,,z,1.209565,0,27,27,27,1,flowers/images/106.jpg,flowers/images/221.jpg,28,kevin,001,2020-11-21_16h35.15.198,test1,2020.2.5,Win32,60,,,,,,,
,,,,m,1.97731,0,28,28,28,1,flowers/images/295.jpg,flowers/images/307.jpg,29,kevin,001,2020-11-21_16h35.15.198,test1,2020.2.5,Win32,60,,,,,,,
,,,,m,1.3455,0,29,29,29,1,flowers/images/368.jpg,flowers/images/384.jpg,30,kevin,001,2020-11-21_16h35.15.198,test1,2020.2.5,Win32,60,,,,,,,
,,,,z,1.248895,0,30,30,30,1,flowers/images/96.jpg,flowers/images/140.jpg,31,kevin,001,2020-11-21_16h35.15.198,test1,2020.2.5,Win32,60,,,,,,,
,,,,z,1.44029,0,31,31,31,1,flowers/images/272.jpg,flowers/images/59.jpg,32,kevin,001,2020-11-21_16h35.15.198,test1,2020.2.5,Win32,60,,,,,,,
,,,,z,1.64345,0,32,32,32,1,flowers/images/389.jpg,flowers/images/110.jpg,33,kevin,001,2020-11-21_16h35.15.198,test1,2020.2.5,Win32,60,,,,,,,
,,,,m,1.23132,0,33,33,33,1,flowers/images/237.jpg,flowers/images/387.jpg,34,kevin,001,2020-11-21_16h35.15.198,test1,2020.2.5,Win32,60,,,,,,,
,,,,z,2.23685,0,34,34,34,1,flowers/images/35.jpg,flowers/images/142.jpg,35,kevin,001,2020-11-21_16h35.15.198,test1,2020.2.5,Win32,60,,,,,,,
,,,,z,1.20894,0,35,35,35,1,flowers/images/49.jpg,flowers/images/200.jpg,36,kevin,001,2020-11-21_16h35.15.198,test1,2020.2.5,Win32,60,,,,,,,
,,,,m,2.32279,0,36,36,36,1,flowers/images/142.jpg,flowers/images/328.jpg,37,kevin,001,2020-11-21_16h35.15.198,test1,2020.2.5,Win32,60,,,,,,,
,,,,z,1.02818,0,37,37,37,1,flowers/images/339.jpg,flowers/images/264.jpg,38,kevin,001,2020-11-21_16h35.15.198,test1,2020.2.5,Win32,60,,,,,,,
,,,,m,2.251045,0,38,38,38,1,flowers/images/394.jpg,flowers/images/266.jpg,39,kevin,001,2020-11-21_16h35.15.198,test1,2020.2.5,Win32,60,,,,,,,
,,,,m,1.17828,0,39,39,39,1,flowers/images/89.jpg,flowers/images/298.jpg,40,kevin,001,2020-11-21_16h35.15.198,test1,2020.2.5,Win32,60,,,,,,,
,,,,z,2.344735,0,40,40,40,1,flowers/images/325.jpg,flowers/images/47.jpg,41,kevin,001,2020-11-21_16h35.15.198,test1,2020.2.5,Win32,60,,,,,,,
,,,,z,1.116075,0,41,41,41,1,flowers/images/40.jpg,flowers/images/162.jpg,42,kevin,001,2020-11-21_16h35.15.198,test1,2020.2.5,Win32,60,,,,,,,
,,,,m,2.031645,0,42,42,42,1,flowers/images/266.jpg,flowers/images/181.jpg,43,kevin,001,2020-11-21_16h35.15.198,test1,2020.2.5,Win32,60,,,,,,,
,,,,z,0.83432,0,43,43,43,1,flowers/images/100.jpg,flowers/images/396.jpg,44,kevin,001,2020-11-21_16h35.15.198,test1,2020.2.5,Win32,60,,,,,,,
,,,,z,1.438025,0,44,44,44,1,flowers/images/144.jpg,flowers/images/231.jpg,45,kevin,001,2020-11-21_16h35.15.198,test1,2020.2.5,Win32,60,,,,,,,
,,,,z,3.03603,0,45,45,45,1,flowers/images/289.jpg,flowers/images/202.jpg,46,kevin,001,2020-11-21_16h35.15.198,test1,2020.2.5,Win32,60,,,,,,,
,,,,m,4.21681,0,46,46,46,1,flowers/images/178.jpg,flowers/images/86.jpg,47,kevin,001,2020-11-21_16h35.15.198,test1,2020.2.5,Win32,60,,,,,,,
,,,,z,0.95954,0,47,47,47,1,flowers/images/360.jpg,flowers/images/393.jpg,48,kevin,001,2020-11-21_16h35.15.198,test1,2020.2.5,Win32,60,,,,,,,
,,,,m,2.855675,0,48,48,48,1,flowers/images/108.jpg,flowers/images/288.jpg,49,kevin,001,2020-11-21_16h35.15.198,test1,2020.2.5,Win32,60,,,,,,,
,,,,z,1.75253,0,49,49,49,1,flowers/images/165.jpg,flowers/images/154.jpg,50,kevin,001,2020-11-21_16h35.15.198,test1,2020.2.5,Win32,60,,,,,,,
,,,,m,1.294265,0,50,50,50,1,flowers/images/27.jpg,flowers/images/121.jpg,51,kevin,001,2020-11-21_16h35.15.198,test1,2020.2.5,Win32,60,,,,,,,
,,,,z,1.359005,0,51,51,51,1,flowers/images/302.jpg,flowers/images/203.jpg,52,kevin,001,2020-11-21_16h35.15.198,test1,2020.2.5,Win32,60,,,,,,,
,,,,m,3.201,0,52,52,52,1,flowers/images/255.jpg,flowers/images/42.jpg,53,kevin,001,2020-11-21_16h35.15.198,test1,2020.2.5,Win32,60,,,,,,,
,,,,z,1.191985,0,53,53,53,1,flowers/images/31.jpg,flowers/images/289.jpg,54,kevin,001,2020-11-21_16h35.15.198,test1,2020.2.5,Win32,60,,,,,,,
,,,,z,2.62931,0,54,54,54,1,flowers/images/66.jpg,flowers/images/246.jpg,55,kevin,001,2020-11-21_16h35.15.198,test1,2020.2.5,Win32,60,,,,,,,
,,,,z,1.32275,0,55,55,55,1,flowers/images/355.jpg,flowers/images/115.jpg,56,kevin,001,2020-11-21_16h35.15.198,test1,2020.2.5,Win32,60,,,,,,,
,,,,z,0.789245,0,56,56,56,1,flowers/images/241.jpg,flowers/images/345.jpg,57,kevin,001,2020-11-21_16h35.15.198,test1,2020.2.5,Win32,60,,,,,,,
,,,,m,1.48582,0,57,57,57,1,flowers/images/296.jpg,flowers/images/37.jpg,58,kevin,001,2020-11-21_16h35.15.198,test1,2020.2.5,Win32,60,,,,,,,
,,,,z,1.2633,0,58,58,58,1,flowers/images/235.jpg,flowers/images/373.jpg,59,kevin,001,2020-11-21_16h35.15.198,test1,2020.2.5,Win32,60,,,,,,,
,,,,z,0.89753,0,59,59,59,1,flowers/images/173.jpg,flowers/images/93.jpg,60,kevin,001,2020-11-21_16h35.15.198,test1,2020.2.5,Win32,60,,,,,,,
,,,,m,1.45015,0,60,60,60,1,flowers/images/331.jpg,flowers/images/88.jpg,61,kevin,001,2020-11-21_16h35.15.198,test1,2020.2.5,Win32,60,,,,,,,
,,,,m,1.31572,0,61,61,61,1,flowers/images/134.jpg,flowers/images/127.jpg,62,kevin,001,2020-11-21_16h35.15.198,test1,2020.2.5,Win32,60,,,,,,,
,,,,z,1.02755,0,62,62,62,1,flowers/images/285.jpg,flowers/images/201.jpg,63,kevin,001,2020-11-21_16h35.15.198,test1,2020.2.5,Win32,60,,,,,,,
,,,,m,1.93589,0,63,63,63,1,flowers/images/151.jpg,flowers/images/52.jpg,64,kevin,001,2020-11-21_16h35.15.198,test1,2020.2.5,Win32,60,,,,,,,
,,,,z,1.16355,0,64,64,64,1,flowers/images/208.jpg,flowers/images/186.jpg,65,kevin,001,2020-11-21_16h35.15.198,test1,2020.2.5,Win32,60,,,,,,,
,,,,m,1.04518,0,65,65,65,1,flowers/images/80.jpg,flowers/images/124.jpg,66,kevin,001,2020-11-21_16h35.15.198,test1,2020.2.5,Win32,60,,,,,,,
,,,,m,6.427615,0,66,66,66,1,flowers/images/303.jpg,flowers/images/347.jpg,67,kevin,001,2020-11-21_16h35.15.198,test1,2020.2.5,Win32,60,,,,,,,
,,,,m,1.036715,0,67,67,67,1,flowers/images/6.jpg,flowers/images/262.jpg,68,kevin,001,2020-11-21_16h35.15.198,test1,2020.2.5,Win32,60,,,,,,,
,,,,z,0.89951,0,68,68,68,1,flowers/images/85.jpg,flowers/images/20.jpg,69,kevin,001,2020-11-21_16h35.15.198,test1,2020.2.5,Win32,60,,,,,,,
,,,,m,0.669,0,69,69,69,1,flowers/images/392.jpg,flowers/images/15.jpg,70,kevin,001,2020-11-21_16h35.15.198,test1,2020.2.5,Win32,60,,,,,,,
,,,,z,0.53775,0,70,70,70,1,flowers/images/341.jpg,flowers/images/357.jpg,71,kevin,001,2020-11-21_16h35.15.198,test1,2020.2.5,Win32,60,,,,,,,
,,,,z,0.62779,0,71,71,71,1,flowers/images/293.jpg,flowers/images/158.jpg,72,kevin,001,2020-11-21_16h35.15.198,test1,2020.2.5,Win32,60,,,,,,,
,,,,z,0.851685,0,72,72,72,1,flowers/images/390.jpg,flowers/images/58.jpg,73,kevin,001,2020-11-21_16h35.15.198,test1,2020.2.5,Win32,60,,,,,,,
,,,,m,3.10276,0,73,73,73,1,flowers/images/82.jpg,flowers/images/16.jpg,74,kevin,001,2020-11-21_16h35.15.198,test1,2020.2.5,Win32,60,,,,,,,
,,,,m,3.220985,0,74,74,74,1,flowers/images/336.jpg,flowers/images/130.jpg,75,kevin,001,2020-11-21_16h35.15.198,test1,2020.2.5,Win32,60,,,,,,,
,,,,m,1.17511,0,75,75,75,1,flowers/images/160.jpg,flowers/images/105.jpg,76,kevin,001,2020-11-21_16h35.15.198,test1,2020.2.5,Win32,60,,,,,,,
,,,,z,1.04809,0,76,76,76,1,flowers/images/328.jpg,flowers/images/305.jpg,77,kevin,001,2020-11-21_16h35.15.198,test1,2020.2.5,Win32,60,,,,,,,
,,,,m,1.55895,0,77,77,77,1,flowers/images/180.jpg,flowers/images/249.jpg,78,kevin,001,2020-11-21_16h35.15.198,test1,2020.2.5,Win32,60,,,,,,,
,,,,z,1.27821,0,78,78,78,1,flowers/images/169.jpg,flowers/images/94.jpg,79,kevin,001,2020-11-21_16h35.15.198,test1,2020.2.5,Win32,60,,,,,,,
,,,,m,1.19368,0,79,79,79,1,flowers/images/145.jpg,flowers/images/277.jpg,80,kevin,001,2020-11-21_16h35.15.198,test1,2020.2.5,Win32,60,,,,,,,
,,,,m,1.598,0,80,80,80,1,flowers/images/358.jpg,flowers/images/197.jpg,81,kevin,001,2020-11-21_16h35.15.198,test1,2020.2.5,Win32,60,,,,,,,
,,,,z,1.433895,0,81,81,81,1,flowers/images/71.jpg,flowers/images/128.jpg,82,kevin,001,2020-11-21_16h35.15.198,test1,2020.2.5,Win32,60,,,,,,,
,,,,z,0.87631,0,82,82,82,1,flowers/images/192.jpg,flowers/images/379.jpg,83,kevin,001,2020-11-21_16h35.15.198,test1,2020.2.5,Win32,60,,,,,,,
,,,,m,0.960705,0,83,83,83,1,flowers/images/189.jpg,flowers/images/271.jpg,84,kevin,001,2020-11-21_16h35.15.198,test1,2020.2.5,Win32,60,,,,,,,
,,,,z,0.63308,0,84,84,84,1,flowers/images/15.jpg,flowers/images/28.jpg,85,kevin,001,2020-11-21_16h35.15.198,test1,2020.2.5,Win32,60,,,,,,,
,,,,z,0.67768,0,85,85,85,1,flowers/images/171.jpg,flowers/images/97.jpg,86,kevin,001,2020-11-21_16h35.15.198,test1,2020.2.5,Win32,60,,,,,,,
,,,,m,0.66327,0,86,86,86,1,flowers/images/287.jpg,flowers/images/29.jpg,87,kevin,001,2020-11-21_16h35.15.198,test1,2020.2.5,Win32,60,,,,,,,
,,,,m,1.546085,0,87,87,87,1,flowers/images/381.jpg,flowers/images/356.jpg,88,kevin,001,2020-11-21_16h35.15.198,test1,2020.2.5,Win32,60,,,,,,,
,,,,m,0.96204,0,88,88,88,1,flowers/images/76.jpg,flowers/images/10.jpg,89,kevin,001,2020-11-21_16h35.15.198,test1,2020.2.5,Win32,60,,,,,,,
,,,,m,1.039815,0,89,89,89,1,flowers/images/239.jpg,flowers/images/226.jpg,90,kevin,001,2020-11-21_16h35.15.198,test1,2020.2.5,Win32,60,,,,,,,
,,,,z,0.6738,0,90,90,90,1,flowers/images/398.jpg,flowers/images/368.jpg,91,kevin,001,2020-11-21_16h35.15.198,test1,2020.2.5,Win32,60,,,,,,,
,,,,m,0.6223,0,91,91,91,1,flowers/images/21.jpg,flowers/images/53.jpg,92,kevin,001,2020-11-21_16h35.15.198,test1,2020.2.5,Win32,60,,,,,,,
,,,,m,0.915895,0,92,92,92,1,flowers/images/352.jpg,flowers/images/230.jpg,93,kevin,001,2020-11-21_16h35.15.198,test1,2020.2.5,Win32,60,,,,,,,
,,,,z,0.890775,0,93,93,93,1,flowers/images/54.jpg,flowers/images/280.jpg,94,kevin,001,2020-11-21_16h35.15.198,test1,2020.2.5,Win32,60,,,,,,,
,,,,z,0.693495,0,94,94,94,1,flowers/images/259.jpg,flowers/images/184.jpg,95,kevin,001,2020-11-21_16h35.15.198,test1,2020.2.5,Win32,60,,,,,,,
,,,,m,1.228135,0,95,95,95,1,flowers/images/7.jpg,flowers/images/137.jpg,96,kevin,001,2020-11-21_16h35.15.198,test1,2020.2.5,Win32,60,,,,,,,
,,,,z,0.923905,0,96,96,96,1,flowers/images/292.jpg,flowers/images/364.jpg,97,kevin,001,2020-11-21_16h35.15.198,test1,2020.2.5,Win32,60,,,,,,,
,,,,m,1.087,0,97,97,97,1,flowers/images/84.jpg,flowers/images/245.jpg,98,kevin,001,2020-11-21_16h35.15.198,test1,2020.2.5,Win32,60,,,,,,,
,,,,m,1.611355,0,98,98,98,1,flowers/images/141.jpg,flowers/images/183.jpg,99,kevin,001,2020-11-21_16h35.15.198,test1,2020.2.5,Win32,60,,,,,,,
,,,,m,1.06139,0,99,99,99,1,flowers/images/45.jpg,flowers/images/375.jpg,100,kevin,001,2020-11-21_16h35.15.198,test1,2020.2.5,Win32,60,,,,,,,
,,,,m,0.741855,0,100,100,100,1,flowers/images/111.jpg,flowers/images/395.jpg,101,kevin,001,2020-11-21_16h35.15.198,test1,2020.2.5,Win32,60,,,,,,,
,,,,m,1.5121,0,101,101,101,1,flowers/images/46.jpg,flowers/images/360.jpg,102,kevin,001,2020-11-21_16h35.15.198,test1,2020.2.5,Win32,60,,,,,,,
,,,,m,2.655995,0,102,102,102,1,flowers/images/399.jpg,flowers/images/4.jpg,103,kevin,001,2020-11-21_16h35.15.198,test1,2020.2.5,Win32,60,,,,,,,
,,,,z,2.51059,0,103,103,103,1,flowers/images/250.jpg,flowers/images/113.jpg,104,kevin,001,2020-11-21_16h35.15.198,test1,2020.2.5,Win32,60,,,,,,,
,,,,m,3.550815,0,104,104,104,1,flowers/images/359.jpg,flowers/images/283.jpg,105,kevin,001,2020-11-21_16h35.15.198,test1,2020.2.5,Win32,60,,,,,,,
,,,,z,0.959575,0,105,105,105,1,flowers/images/209.jpg,flowers/images/309.jpg,106,kevin,001,2020-11-21_16h35.15.198,test1,2020.2.5,Win32,60,,,,,,,
,,,,m,1.499505,0,106,106,106,1,flowers/images/219.jpg,flowers/images/285.jpg,107,kevin,001,2020-11-21_16h35.15.198,test1,2020.2.5,Win32,60,,,,,,,
,,,,m,1.189755,0,107,107,107,1,flowers/images/159.jpg,flowers/images/377.jpg,108,kevin,001,2020-11-21_16h35.15.198,test1,2020.2.5,Win32,60,,,,,,,
,,,,m,1.179305,0,108,108,108,1,flowers/images/17.jpg,flowers/images/365.jpg,109,kevin,001,2020-11-21_16h35.15.198,test1,2020.2.5,Win32,60,,,,,,,
,,,,m,0.634175,0,109,109,109,1,flowers/images/247.jpg,flowers/images/14.jpg,110,kevin,001,2020-11-21_16h35.15.198,test1,2020.2.5,Win32,60,,,,,,,
,,,,m,1.50055,0,110,110,110,1,flowers/images/357.jpg,flowers/images/229.jpg,111,kevin,001,2020-11-21_16h35.15.198,test1,2020.2.5,Win32,60,,,,,,,
,,,,z,0.714075,0,111,111,111,1,flowers/images/378.jpg,flowers/images/299.jpg,112,kevin,001,2020-11-21_16h35.15.198,test1,2020.2.5,Win32,60,,,,,,,
,,,,z,1.0858,0,112,112,112,1,flowers/images/191.jpg,flowers/images/304.jpg,113,kevin,001,2020-11-21_16h35.15.198,test1,2020.2.5,Win32,60,,,,,,,
,,,,m,0.839855,0,113,113,113,1,flowers/images/195.jpg,flowers/images/44.jpg,114,kevin,001,2020-11-21_16h35.15.198,test1,2020.2.5,Win32,60,,,,,,,
,,,,m,4.29288,0,114,114,114,1,flowers/images/126.jpg,flowers/images/161.jpg,115,kevin,001,2020-11-21_16h35.15.198,test1,2020.2.5,Win32,60,,,,,,,
,,,,z,0.725315,0,115,115,115,1,flowers/images/340.jpg,flowers/images/178.jpg,116,kevin,001,2020-11-21_16h35.15.198,test1,2020.2.5,Win32,60,,,,,,,
,,,,m,1.082155,0,116,116,116,1,flowers/images/201.jpg,flowers/images/21.jpg,117,kevin,001,2020-11-21_16h35.15.198,test1,2020.2.5,Win32,60,,,,,,,
,,,,m,0.842485,0,117,117,117,1,flowers/images/307.jpg,flowers/images/122.jpg,118,kevin,001,2020-11-21_16h35.15.198,test1,2020.2.5,Win32,60,,,,,,,
,,,,z,1.629175,0,118,118,118,1,flowers/images/194.jpg,flowers/images/23.jpg,119,kevin,001,2020-11-21_16h35.15.198,test1,2020.2.5,Win32,60,,,,,,,
,,,,m,0.663285,0,119,119,119,1,flowers/images/318.jpg,flowers/images/293.jpg,120,kevin,001,2020-11-21_16h35.15.198,test1,2020.2.5,Win32,60,,,,,,,
,,,,z,0.82227,0,120,120,120,1,flowers/images/69.jpg,flowers/images/327.jpg,121,kevin,001,2020-11-21_16h35.15.198,test1,2020.2.5,Win32,60,,,,,,,
,,,,m,0.994305,0,121,121,121,1,flowers/images/98.jpg,flowers/images/208.jpg,122,kevin,001,2020-11-21_16h35.15.198,test1,2020.2.5,Win32,60,,,,,,,
,,,,m,0.919805,0,122,122,122,1,flowers/images/184.jpg,flowers/images/96.jpg,123,kevin,001,2020-11-21_16h35.15.198,test1,2020.2.5,Win32,60,,,,,,,
,,,,z,11.32288,0,123,123,123,1,flowers/images/44.jpg,flowers/images/317.jpg,124,kevin,001,2020-11-21_16h35.15.198,test1,2020.2.5,Win32,60,,,,,,,
,,,,m,1.36086,0,124,124,124,1,flowers/images/222.jpg,flowers/images/9.jpg,125,kevin,001,2020-11-21_16h35.15.198,test1,2020.2.5,Win32,60,,,,,,,
,,,,m,1.04325,0,125,125,125,1,flowers/images/218.jpg,flowers/images/153.jpg,126,kevin,001,2020-11-21_16h35.15.198,test1,2020.2.5,Win32,60,,,,,,,
,,,,m,1.035355,0,126,126,126,1,flowers/images/275.jpg,flowers/images/295.jpg,127,kevin,001,2020-11-21_16h35.15.198,test1,2020.2.5,Win32,60,,,,,,,
,,,,m,1.26963,0,127,127,127,1,flowers/images/172.jpg,flowers/images/34.jpg,128,kevin,001,2020-11-21_16h35.15.198,test1,2020.2.5,Win32,60,,,,,,,
,,,,m,0.950095,0,128,128,128,1,flowers/images/345.jpg,flowers/images/89.jpg,129,kevin,001,2020-11-21_16h35.15.198,test1,2020.2.5,Win32,60,,,,,,,
,,,,z,1.367955,0,129,129,129,1,flowers/images/334.jpg,flowers/images/376.jpg,130,kevin,001,2020-11-21_16h35.15.198,test1,2020.2.5,Win32,60,,,,,,,
,,,,z,0.953235,0,130,130,130,1,flowers/images/93.jpg,flowers/images/6.jpg,131,kevin,001,2020-11-21_16h35.15.198,test1,2020.2.5,Win32,60,,,,,,,
,,,,z,1.165885,0,131,131,131,1,flowers/images/183.jpg,flowers/images/76.jpg,132,kevin,001,2020-11-21_16h35.15.198,test1,2020.2.5,Win32,60,,,,,,,
,,,,m,3.75658,0,132,132,132,1,flowers/images/304.jpg,flowers/images/224.jpg,133,kevin,001,2020-11-21_16h35.15.198,test1,2020.2.5,Win32,60,,,,,,,
,,,,m,1.21571,0,133,133,133,1,flowers/images/330.jpg,flowers/images/81.jpg,134,kevin,001,2020-11-21_16h35.15.198,test1,2020.2.5,Win32,60,,,,,,,
,,,,z,1.77415,0,134,134,134,1,flowers/images/147.jpg,flowers/images/36.jpg,135,kevin,001,2020-11-21_16h35.15.198,test1,2020.2.5,Win32,60,,,,,,,
,,,,m,1.73197,0,135,135,135,1,flowers/images/62.jpg,flowers/images/321.jpg,136,kevin,001,2020-11-21_16h35.15.198,test1,2020.2.5,Win32,60,,,,,,,
,,,,z,1.057315,0,136,136,136,1,flowers/images/367.jpg,flowers/images/311.jpg,137,kevin,001,2020-11-21_16h35.15.198,test1,2020.2.5,Win32,60,,,,,,,
,,,,m,1.183645,0,137,137,137,1,flowers/images/326.jpg,flowers/images/7.jpg,138,kevin,001,2020-11-21_16h35.15.198,test1,2020.2.5,Win32,60,,,,,,,
,,,,z,0.947445,0,138,138,138,1,flowers/images/28.jpg,flowers/images/382.jpg,139,kevin,001,2020-11-21_16h35.15.198,test1,2020.2.5,Win32,60,,,,,,,
,,,,z,1.12809,0,139,139,139,1,flowers/images/156.jpg,flowers/images/152.jpg,140,kevin,001,2020-11-21_16h35.15.198,test1,2020.2.5,Win32,60,,,,,,,
,,,,z,1.316975,0,140,140,140,1,flowers/images/113.jpg,flowers/images/167.jpg,141,kevin,001,2020-11-21_16h35.15.198,test1,2020.2.5,Win32,60,,,,,,,
,,,,z,0.772585,0,141,141,141,1,flowers/images/155.jpg,flowers/images/342.jpg,142,kevin,001,2020-11-21_16h35.15.198,test1,2020.2.5,Win32,60,,,,,,,
,,,,m,1.23735,0,142,142,142,1,flowers/images/213.jpg,flowers/images/353.jpg,143,kevin,001,2020-11-21_16h35.15.198,test1,2020.2.5,Win32,60,,,,,,,
,,,,m,0.745455,0,143,143,143,1,flowers/images/298.jpg,flowers/images/90.jpg,144,kevin,001,2020-11-21_16h35.15.198,test1,2020.2.5,Win32,60,,,,,,,
,,,,z,1.226335,0,144,144,144,1,flowers/images/217.jpg,flowers/images/240.jpg,145,kevin,001,2020-11-21_16h35.15.198,test1,2020.2.5,Win32,60,,,,,,,
,,,,z,1.990095,0,145,145,145,1,flowers/images/97.jpg,flowers/images/133.jpg,146,kevin,001,2020-11-21_16h35.15.198,test1,2020.2.5,Win32,60,,,,,,,
,,,,z,3.35067,0,146,146,146,1,flowers/images/354.jpg,flowers/images/310.jpg,147,kevin,001,2020-11-21_16h35.15.198,test1,2020.2.5,Win32,60,,,,,,,
,,,,m,1.443365,0,147,147,147,1,flowers/images/377.jpg,flowers/images/273.jpg,148,kevin,001,2020-11-21_16h35.15.198,test1,2020.2.5,Win32,60,,,,,,,
,,,,z,0.90126,0,148,148,148,1,flowers/images/121.jpg,flowers/images/294.jpg,149,kevin,001,2020-11-21_16h35.15.198,test1,2020.2.5,Win32,60,,,,,,,
,,,,z,0.733915,0,149,149,149,1,flowers/images/14.jpg,flowers/images/101.jpg,150,kevin,001,2020-11-21_16h35.15.198,test1,2020.2.5,Win32,60,,,,,,,
,,,,z,0.930095,0,150,150,150,1,flowers/images/321.jpg,flowers/images/51.jpg,151,kevin,001,2020-11-21_16h35.15.198,test1,2020.2.5,Win32,60,,,,,,,
,,,,z,0.929875,0,151,151,151,1,flowers/images/362.jpg,flowers/images/175.jpg,152,kevin,001,2020-11-21_16h35.15.198,test1,2020.2.5,Win32,60,,,,,,,
,,,,m,0.68266,0,152,152,152,1,flowers/images/203.jpg,flowers/images/248.jpg,153,kevin,001,2020-11-21_16h35.15.198,test1,2020.2.5,Win32,60,,,,,,,
,,,,m,1.14393,0,153,153,153,1,flowers/images/12.jpg,flowers/images/300.jpg,154,kevin,001,2020-11-21_16h35.15.198,test1,2020.2.5,Win32,60,,,,,,,
,,,,z,0.965365,0,154,154,154,1,flowers/images/365.jpg,flowers/images/218.jpg,155,kevin,001,2020-11-21_16h35.15.198,test1,2020.2.5,Win32,60,,,,,,,
,,,,m,1.23432,0,155,155,155,1,flowers/images/75.jpg,flowers/images/109.jpg,156,kevin,001,2020-11-21_16h35.15.198,test1,2020.2.5,Win32,60,,,,,,,
,,,,z,0.676795,0,156,156,156,1,flowers/images/127.jpg,flowers/images/333.jpg,157,kevin,001,2020-11-21_16h35.15.198,test1,2020.2.5,Win32,60,,,,,,,
,,,,z,3.41597,0,157,157,157,1,flowers/images/258.jpg,flowers/images/135.jpg,158,kevin,001,2020-11-21_16h35.15.198,test1,2020.2.5,Win32,60,,,,,,,
,,,,m,0.86445,0,158,158,158,1,flowers/images/343.jpg,flowers/images/65.jpg,159,kevin,001,2020-11-21_16h35.15.198,test1,2020.2.5,Win32,60,,,,,,,
,,,,z,2.32917,0,159,159,159,1,flowers/images/58.jpg,flowers/images/138.jpg,160,kevin,001,2020-11-21_16h35.15.198,test1,2020.2.5,Win32,60,,,,,,,
,,,,z,0.86327,0,160,160,160,1,flowers/images/94.jpg,flowers/images/234.jpg,161,kevin,001,2020-11-21_16h35.15.198,test1,2020.2.5,Win32,60,,,,,,,
,,,,m,0.667645,0,161,161,161,1,flowers/images/379.jpg,flowers/images/207.jpg,162,kevin,001,2020-11-21_16h35.15.198,test1,2020.2.5,Win32,60,,,,,,,
,,,,m,0.827425,0,162,162,162,1,flowers/images/128.jpg,flowers/images/79.jpg,163,kevin,001,2020-11-21_16h35.15.198,test1,2020.2.5,Win32,60,,,,,,,
,,,,m,1.336285,0,163,163,163,1,flowers/images/47.jpg,flowers/images/85.jpg,164,kevin,001,2020-11-21_16h35.15.198,test1,2020.2.5,Win32,60,,,,,,,
,,,,z,1.85062,0,164,164,164,1,flowers/images/19.jpg,flowers/images/191.jpg,165,kevin,001,2020-11-21_16h35.15.198,test1,2020.2.5,Win32,60,,,,,,,
,,,,m,5.434915,0,165,165,165,1,flowers/images/32.jpg,flowers/images/259.jpg,166,kevin,001,2020-11-21_16h35.15.198,test1,2020.2.5,Win32,60,,,,,,,
,,,,z,2.18856,0,166,166,166,1,flowers/images/323.jpg,flowers/images/284.jpg,167,kevin,001,2020-11-21_16h35.15.198,test1,2020.2.5,Win32,60,,,,,,,
,,,,m,1.34523,0,167,167,167,1,flowers/images/395.jpg,flowers/images/348.jpg,168,kevin,001,2020-11-21_16h35.15.198,test1,2020.2.5,Win32,60,,,,,,,
,,,,m,1.519165,0,168,168,168,1,flowers/images/279.jpg,flowers/images/370.jpg,169,kevin,001,2020-11-21_16h35.15.198,test1,2020.2.5,Win32,60,,,,,,,
,,,,m,1.05769,0,169,169,169,1,flowers/images/264.jpg,flowers/images/125.jpg,170,kevin,001,2020-11-21_16h35.15.198,test1,2020.2.5,Win32,60,,,,,,,
,,,,z,1.35979,0,170,170,170,1,flowers/images/77.jpg,flowers/images/318.jpg,171,kevin,001,2020-11-21_16h35.15.198,test1,2020.2.5,Win32,60,,,,,,,
,,,,m,2.0862,0,171,171,171,1,flowers/images/376.jpg,flowers/images/242.jpg,172,kevin,001,2020-11-21_16h35.15.198,test1,2020.2.5,Win32,60,,,,,,,
,,,,m,1.12869,0,172,172,172,1,flowers/images/351.jpg,flowers/images/132.jpg,173,kevin,001,2020-11-21_16h35.15.198,test1,2020.2.5,Win32,60,,,,,,,
,,,,z,0.85291,0,173,173,173,1,flowers/images/305.jpg,flowers/images/252.jpg,174,kevin,001,2020-11-21_16h35.15.198,test1,2020.2.5,Win32,60,,,,,,,
,,,,z,2.66934,0,174,174,174,1,flowers/images/29.jpg,flowers/images/217.jpg,175,kevin,001,2020-11-21_16h35.15.198,test1,2020.2.5,Win32,60,,,,,,,
,,,,m,0.75887,0,175,175,175,1,flowers/images/3.jpg,flowers/images/228.jpg,176,kevin,001,2020-11-21_16h35.15.198,test1,2020.2.5,Win32,60,,,,,,,
,,,,z,1.34723,0,176,176,176,1,flowers/images/199.jpg,flowers/images/330.jpg,177,kevin,001,2020-11-21_16h35.15.198,test1,2020.2.5,Win32,60,,,,,,,
,,,,m,0.79289,0,177,177,177,1,flowers/images/274.jpg,flowers/images/179.jpg,178,kevin,001,2020-11-21_16h35.15.198,test1,2020.2.5,Win32,60,,,,,,,
,,,,z,2.22434,0,178,178,178,1,flowers/images/346.jpg,flowers/images/290.jpg,179,kevin,001,2020-11-21_16h35.15.198,test1,2020.2.5,Win32,60,,,,,,,
,,,,z,1.776795,0,179,179,179,1,flowers/images/56.jpg,flowers/images/204.jpg,180,kevin,001,2020-11-21_16h35.15.198,test1,2020.2.5,Win32,60,,,,,,,
,,,,z,0.674415,0,180,180,180,1,flowers/images/179.jpg,flowers/images/114.jpg,181,kevin,001,2020-11-21_16h35.15.198,test1,2020.2.5,Win32,60,,,,,,,
,,,,z,1.364745,0,181,181,181,1,flowers/images/36.jpg,flowers/images/223.jpg,182,kevin,001,2020-11-21_16h35.15.198,test1,2020.2.5,Win32,60,,,,,,,
,,,,m,0.634945,0,182,182,182,1,flowers/images/344.jpg,flowers/images/168.jpg,183,kevin,001,2020-11-21_16h35.15.198,test1,2020.2.5,Win32,60,,,,,,,
,,,,z,1.321625,0,183,183,183,1,flowers/images/153.jpg,flowers/images/22.jpg,184,kevin,001,2020-11-21_16h35.15.198,test1,2020.2.5,Win32,60,,,,,,,
,,,,m,1.325405,0,184,184,184,1,flowers/images/39.jpg,flowers/images/323.jpg,185,kevin,001,2020-11-21_16h35.15.198,test1,2020.2.5,Win32,60,,,,,,,
,,,,z,0.832055,0,185,185,185,1,flowers/images/327.jpg,flowers/images/349.jpg,186,kevin,001,2020-11-21_16h35.15.198,test1,2020.2.5,Win32,60,,,,,,,
,,,,m,0.86146,0,186,186,186,1,flowers/images/81.jpg,flowers/images/30.jpg,187,kevin,001,2020-11-21_16h35.15.198,test1,2020.2.5,Win32,60,,,,,,,
,,,,z,1.976065,0,187,187,187,1,flowers/images/42.jpg,flowers/images/107.jpg,188,kevin,001,2020-11-21_16h35.15.198,test1,2020.2.5,Win32,60,,,,,,,
,,,,m,1.475295,0,188,188,188,1,flowers/images/18.jpg,flowers/images/358.jpg,189,kevin,001,2020-11-21_16h35.15.198,test1,2020.2.5,Win32,60,,,,,,,
,,,,m,0.97862,0,189,189,189,1,flowers/images/200.jpg,flowers/images/385.jpg,190,kevin,001,2020-11-21_16h35.15.198,test1,2020.2.5,Win32,60,,,,,,,
,,,,m,2.117695,0,190,190,190,1,flowers/images/369.jpg,flowers/images/233.jpg,191,kevin,001,2020-11-21_16h35.15.198,test1,2020.2.5,Win32,60,,,,,,,
,,,,z,1.367185,0,191,191,191,1,flowers/images/309.jpg,flowers/images/320.jpg,192,kevin,001,2020-11-21_16h35.15.198,test1,2020.2.5,Win32,60,,,,,,,
,,,,z,1.25971,0,192,192,192,1,flowers/images/64.jpg,flowers/images/303.jpg,193,kevin,001,2020-11-21_16h35.15.198,test1,2020.2.5,Win32,60,,,,,,,
,,,,m,0.71913,0,193,193,193,1,flowers/images/86.jpg,flowers/images/216.jpg,194,kevin,001,2020-11-21_16h35.15.198,test1,2020.2.5,Win32,60,,,,,,,
,,,,z,0.571895,0,194,194,194,1,flowers/images/260.jpg,flowers/images/361.jpg,195,kevin,001,2020-11-21_16h35.15.198,test1,2020.2.5,Win32,60,,,,,,,
,,,,m,1.64048,0,195,195,195,1,flowers/images/9.jpg,flowers/images/173.jpg,196,kevin,001,2020-11-21_16h35.15.198,test1,2020.2.5,Win32,60,,,,,,,
,,,,z,22.286365,0,196,196,196,1,flowers/images/22.jpg,flowers/images/41.jpg,197,kevin,001,2020-11-21_16h35.15.198,test1,2020.2.5,Win32,60,,,,,,,
,,,,z,1.49652,0,197,197,197,1,flowers/images/214.jpg,flowers/images/145.jpg,198,kevin,001,2020-11-21_16h35.15.198,test1,2020.2.5,Win32,60,,,,,,,
,,,,z,0.577755,0,198,198,198,1,flowers/images/72.jpg,flowers/images/308.jpg,199,kevin,001,2020-11-21_16h35.15.198,test1,2020.2.5,Win32,60,,,,,,,
,,,,m,0.795595,0,199,199,199,1,flowers/images/34.jpg,flowers/images/237.jpg,200,kevin,001,2020-11-21_16h35.15.198,test1,2020.2.5,Win32,60,,,,,,,
,,,,m,1.36918,,,,,,flowers/images/166.jpg,flowers/images/169.jpg,1,kevin,001,2020-11-21_16h35.15.198,test1,2020.2.5,Win32,60,space,2.23589,0,0,0,0,1
,,,,m,1.26161,,,,,,flowers/images/161.jpg,flowers/images/68.jpg,2,kevin,001,2020-11-21_16h35.15.198,test1,2020.2.5,Win32,60,,,0,1,1,1,1
,,,,m,0.606895,,,,,,flowers/images/319.jpg,flowers/images/341.jpg,3,kevin,001,2020-11-21_16h35.15.198,test1,2020.2.5,Win32,60,,,0,2,2,2,1
,,,,z,0.693555,,,,,,flowers/images/322.jpg,flowers/images/111.jpg,4,kevin,001,2020-11-21_16h35.15.198,test1,2020.2.5,Win32,60,,,0,3,3,3,1
,,,,z,0.67384,,,,,,flowers/images/2.jpg,flowers/images/95.jpg,5,kevin,001,2020-11-21_16h35.15.198,test1,2020.2.5,Win32,60,,,0,4,4,4,1
,,,,m,0.6777,,,,,,flowers/images/276.jpg,flowers/images/66.jpg,6,kevin,001,2020-11-21_16h35.15.198,test1,2020.2.5,Win32,60,,,0,5,5,5,1
,,,,z,0.708715,,,,,,flowers/images/116.jpg,flowers/images/206.jpg,7,kevin,001,2020-11-21_16h35.15.198,test1,2020.2.5,Win32,60,,,0,6,6,6,1
,,,,z,0.692965,,,,,,flowers/images/282.jpg,flowers/images/314.jpg,8,kevin,001,2020-11-21_16h35.15.198,test1,2020.2.5,Win32,60,,,0,7,7,7,1
,,,,m,0.597365,,,,,,flowers/images/261.jpg,flowers/images/260.jpg,9,kevin,001,2020-11-21_16h35.15.198,test1,2020.2.5,Win32,60,,,0,8,8,8,1
,,,,m,0.824905,,,,,,flowers/images/353.jpg,flowers/images/151.jpg,10,kevin,001,2020-11-21_16h35.15.198,test1,2020.2.5,Win32,60,,,0,9,9,9,1
,,,,z,0.650445,,,,,,flowers/images/216.jpg,flowers/images/156.jpg,11,kevin,001,2020-11-21_16h35.15.198,test1,2020.2.5,Win32,60,,,0,10,10,10,1
,,,,m,0.56323,,,,,,flowers/images/320.jpg,flowers/images/292.jpg,12,kevin,001,2020-11-21_16h35.15.198,test1,2020.2.5,Win32,60,,,0,11,11,11,1
,,,,m,0.87449,,,,,,flowers/images/149.jpg,flowers/images/279.jpg,13,kevin,001,2020-11-21_16h35.15.198,test1,2020.2.5,Win32,60,,,0,12,12,12,1
,,,,m,1.87713,,,,,,flowers/images/163.jpg,flowers/images/219.jpg,14,kevin,001,2020-11-21_16h35.15.198,test1,2020.2.5,Win32,60,,,0,13,13,13,1
,,,,m,0.70451,,,,,,flowers/images/10.jpg,flowers/images/232.jpg,15,kevin,001,2020-11-21_16h35.15.198,test1,2020.2.5,Win32,60,,,0,14,14,14,1
,,,,z,1.391485,,,,,,flowers/images/55.jpg,flowers/images/73.jpg,16,kevin,001,2020-11-21_16h35.15.198,test1,2020.2.5,Win32,60,,,0,15,15,15,1
,,,,z,1.057535,,,,,,flowers/images/123.jpg,flowers/images/189.jpg,17,kevin,001,2020-11-21_16h35.15.198,test1,2020.2.5,Win32,60,,,0,16,16,16,1
,,,,m,0.80148,,,,,,flowers/images/37.jpg,flowers/images/254.jpg,18,kevin,001,2020-11-21_16h35.15.198,test1,2020.2.5,Win32,60,,,0,17,17,17,1
,,,,z,0.612115,,,,,,flowers/images/230.jpg,flowers/images/166.jpg,19,kevin,001,2020-11-21_16h35.15.198,test1,2020.2.5,Win32,60,,,0,18,18,18,1
,,,,m,1.426,,,,,,flowers/images/338.jpg,flowers/images/33.jpg,20,kevin,001,2020-11-21_16h35.15.198,test1,2020.2.5,Win32,60,,,0,19,19,19,1
,,,,m,0.75517,,,,,,flowers/images/337.jpg,flowers/images/193.jpg,21,kevin,001,2020-11-21_16h35.15.198,test1,2020.2.5,Win32,60,,,0,20,20,20,1
,,,,m,1.23443,,,,,,flowers/images/83.jpg,flowers/images/339.jpg,22,kevin,001,2020-11-21_16h35.15.198,test1,2020.2.5,Win32,60,,,0,21,21,21,1
,,,,z,0.549245,,,,,,flowers/images/190.jpg,flowers/images/99.jpg,23,kevin,001,2020-11-21_16h35.15.198,test1,2020.2.5,Win32,60,,,0,22,22,22,1
,,,,z,0.912925,,,,,,flowers/images/257.jpg,flowers/images/369.jpg,24,kevin,001,2020-11-21_16h35.15.198,test1,2020.2.5,Win32,60,,,0,23,23,23,1
,,,,m,1.303255,,,,,,flowers/images/280.jpg,flowers/images/355.jpg,25,kevin,001,2020-11-21_16h35.15.198,test1,2020.2.5,Win32,60,,,0,24,24,24,1
,,,,z,0.651135,,,,,,flowers/images/105.jpg,flowers/images/338.jpg,26,kevin,001,2020-11-21_16h35.15.198,test1,2020.2.5,Win32,60,,,0,25,25,25,1
,,,,m,1.433445,,,,,,flowers/images/202.jpg,flowers/images/3.jpg,27,kevin,001,2020-11-21_16h35.15.198,test1,2020.2.5,Win32,60,,,0,26,26,26,1
,,,,m,0.828465,,,,,,flowers/images/212.jpg,flowers/images/38.jpg,28,kevin,001,2020-11-21_16h35.15.198,test1,2020.2.5,Win32,60,,,0,27,27,27,1
,,,,m,1.831335,,,,,,flowers/images/152.jpg,flowers/images/0.jpg,29,kevin,001,2020-11-21_16h35.15.198,test1,2020.2.5,Win32,60,,,0,28,28,28,1
,,,,z,0.71399,,,,,,flowers/images/170.jpg,flowers/images/296.jpg,30,kevin,001,2020-11-21_16h35.15.198,test1,2020.2.5,Win32,60,,,0,29,29,29,1
,,,,z,1.65438,,,,,,flowers/images/74.jpg,flowers/images/80.jpg,31,kevin,001,2020-11-21_16h35.15.198,test1,2020.2.5,Win32,60,,,0,30,30,30,1
,,,,z,0.70086,,,,,,flowers/images/226.jpg,flowers/images/117.jpg,32,kevin,001,2020-11-21_16h35.15.198,test1,2020.2.5,Win32,60,,,0,31,31,31,1
,,,,m,0.67459,,,,,,flowers/images/1.jpg,flowers/images/19.jpg,33,kevin,001,2020-11-21_16h35.15.198,test1,2020.2.5,Win32,60,,,0,32,32,32,1
,,,,m,2.236155,,,,,,flowers/images/182.jpg,flowers/images/335.jpg,34,kevin,001,2020-11-21_16h35.15.198,test1,2020.2.5,Win32,60,,,0,33,33,33,1
,,,,m,1.1362,,,,,,flowers/images/245.jpg,flowers/images/62.jpg,35,kevin,001,2020-11-21_16h35.15.198,test1,2020.2.5,Win32,60,,,0,34,34,34,1
,,,,m,1.03619,,,,,,flowers/images/167.jpg,flowers/images/49.jpg,36,kevin,001,2020-11-21_16h35.15.198,test1,2020.2.5,Win32,60,,,0,35,35,35,1
,,,,z,0.576665,,,,,,flowers/images/38.jpg,flowers/images/250.jpg,37,kevin,001,2020-11-21_16h35.15.198,test1,2020.2.5,Win32,60,,,0,36,36,36,1
,,,,z,0.6647,,,,,,flowers/images/124.jpg,flowers/images/324.jpg,38,kevin,001,2020-11-21_16h35.15.198,test1,2020.2.5,Win32,60,,,0,37,37,37,1
,,,,z,1.063245,,,,,,flowers/images/92.jpg,flowers/images/13.jpg,39,kevin,001,2020-11-21_16h35.15.198,test1,2020.2.5,Win32,60,,,0,38,38,38,1
,,,,z,0.708425,,,,,,flowers/images/120.jpg,flowers/images/374.jpg,40,kevin,001,2020-11-21_16h35.15.198,test1,2020.2.5,Win32,60,,,0,39,39,39,1
,,,,m,0.62967,,,,,,flowers/images/350.jpg,flowers/images/100.jpg,41,kevin,001,2020-11-21_16h35.15.198,test1,2020.2.5,Win32,60,,,0,40,40,40,1
,,,,z,1.6102,,,,,,flowers/images/68.jpg,flowers/images/236.jpg,42,kevin,001,2020-11-21_16h35.15.198,test1,2020.2.5,Win32,60,,,0,41,41,41,1
,,,,z,20.771235,,,,,,flowers/images/5.jpg,flowers/images/340.jpg,43,kevin,001,2020-11-21_16h35.15.198,test1,2020.2.5,Win32,60,,,0,42,42,42,1
,,,,m,1.116715,,,,,,flowers/images/99.jpg,flowers/images/313.jpg,44,kevin,001,2020-11-21_16h35.15.198,test1,2020.2.5,Win32,60,,,0,43,43,43,1
,,,,z,0.552745,,,,,,flowers/images/229.jpg,flowers/images/177.jpg,45,kevin,001,2020-11-21_16h35.15.198,test1,2020.2.5,Win32,60,,,0,44,44,44,1
,,,,z,1.2177,,,,,,flowers/images/361.jpg,flowers/images/383.jpg,46,kevin,001,2020-11-21_16h35.15.198,test1,2020.2.5,Win32,60,,,0,45,45,45,1
,,,,z,0.823915,,,,,,flowers/images/129.jpg,flowers/images/398.jpg,47,kevin,001,2020-11-21_16h35.15.198,test1,2020.2.5,Win32,60,,,0,46,46,46,1
,,,,z,0.836685,,,,,,flowers/images/228.jpg,flowers/images/159.jpg,48,kevin,001,2020-11-21_16h35.15.198,test1,2020.2.5,Win32,60,,,0,47,47,47,1
,,,,z,0.605985,,,,,,flowers/images/65.jpg,flowers/images/312.jpg,49,kevin,001,2020-11-21_16h35.15.198,test1,2020.2.5,Win32,60,,,0,48,48,48,1
,,,,z,0.94676,,,,,,flowers/images/73.jpg,flowers/images/163.jpg,50,kevin,001,2020-11-21_16h35.15.198,test1,2020.2.5,Win32,60,,,0,49,49,49,1
,,,,z,0.73894,,,,,,flowers/images/224.jpg,flowers/images/278.jpg,51,kevin,001,2020-11-21_16h35.15.198,test1,2020.2.5,Win32,60,,,0,50,50,50,1
,,,,m,0.75669,,,,,,flowers/images/312.jpg,flowers/images/185.jpg,52,kevin,001,2020-11-21_16h35.15.198,test1,2020.2.5,Win32,60,,,0,51,51,51,1
,,,,z,0.672315,,,,,,flowers/images/256.jpg,flowers/images/112.jpg,53,kevin,001,2020-11-21_16h35.15.198,test1,2020.2.5,Win32,60,,,0,52,52,52,1
,,,,z,0.609345,,,,,,flowers/images/26.jpg,flowers/images/261.jpg,54,kevin,001,2020-11-21_16h35.15.198,test1,2020.2.5,Win32,60,,,0,53,53,53,1
,,,,m,0.98746,,,,,,flowers/images/51.jpg,flowers/images/106.jpg,55,kevin,001,2020-11-21_16h35.15.198,test1,2020.2.5,Win32,60,,,0,54,54,54,1
,,,,z,0.68287,,,,,,flowers/images/371.jpg,flowers/images/160.jpg,56,kevin,001,2020-11-21_16h35.15.198,test1,2020.2.5,Win32,60,,,0,55,55,55,1
,,,,m,0.96319,,,,,,flowers/images/59.jpg,flowers/images/257.jpg,57,kevin,001,2020-11-21_16h35.15.198,test1,2020.2.5,Win32,60,,,0,56,56,56,1
,,,,m,0.72015,,,,,,flowers/images/347.jpg,flowers/images/190.jpg,58,kevin,001,2020-11-21_16h35.15.198,test1,2020.2.5,Win32,60,,,0,57,57,57,1
,,,,z,1.27769,,,,,,flowers/images/8.jpg,flowers/images/209.jpg,59,kevin,001,2020-11-21_16h35.15.198,test1,2020.2.5,Win32,60,,,0,58,58,58,1
,,,,z,0.75833,,,,,,flowers/images/278.jpg,flowers/images/31.jpg,60,kevin,001,2020-11-21_16h35.15.198,test1,2020.2.5,Win32,60,,,0,59,59,59,1
,,,,m,0.7756,,,,,,flowers/images/262.jpg,flowers/images/325.jpg,61,kevin,001,2020-11-21_16h35.15.198,test1,2020.2.5,Win32,60,,,0,60,60,60,1
,,,,z,0.624875,,,,,,flowers/images/273.jpg,flowers/images/83.jpg,62,kevin,001,2020-11-21_16h35.15.198,test1,2020.2.5,Win32,60,,,0,61,61,61,1
,,,,z,0.663155,,,,,,flowers/images/52.jpg,flowers/images/17.jpg,63,kevin,001,2020-11-21_16h35.15.198,test1,2020.2.5,Win32,60,,,0,62,62,62,1
,,,,z,0.580205,,,,,,flowers/images/243.jpg,flowers/images/27.jpg,64,kevin,001,2020-11-21_16h35.15.198,test1,2020.2.5,Win32,60,,,0,63,63,63,1
,,,,m,0.563305,,,,,,flowers/images/175.jpg,flowers/images/192.jpg,65,kevin,001,2020-11-21_16h35.15.198,test1,2020.2.5,Win32,60,,,0,64,64,64,1
,,,,z,0.607795,,,,,,flowers/images/53.jpg,flowers/images/199.jpg,66,kevin,001,2020-11-21_16h35.15.198,test1,2020.2.5,Win32,60,,,0,65,65,65,1
,,,,m,0.59242,,,,,,flowers/images/316.jpg,flowers/images/381.jpg,67,kevin,001,2020-11-21_16h35.15.198,test1,2020.2.5,Win32,60,,,0,66,66,66,1
,,,,z,1.18184,,,,,,flowers/images/249.jpg,flowers/images/213.jpg,68,kevin,001,2020-11-21_16h35.15.198,test1,2020.2.5,Win32,60,,,0,67,67,67,1
,,,,z,0.530525,,,,,,flowers/images/70.jpg,flowers/images/60.jpg,69,kevin,001,2020-11-21_16h35.15.198,test1,2020.2.5,Win32,60,,,0,68,68,68,1
,,,,m,0.730265,,,,,,flowers/images/300.jpg,flowers/images/386.jpg,70,kevin,001,2020-11-21_16h35.15.198,test1,2020.2.5,Win32,60,,,0,69,69,69,1
,,,,z,0.808465,,,,,,flowers/images/162.jpg,flowers/images/149.jpg,71,kevin,001,2020-11-21_16h35.15.198,test1,2020.2.5,Win32,60,,,0,70,70,70,1
,,,,m,2.084645,,,,,,flowers/images/146.jpg,flowers/images/336.jpg,72,kevin,001,2020-11-21_16h35.15.198,test1,2020.2.5,Win32,60,,,0,71,71,71,1
,,,,m,1.04814,,,,,,flowers/images/115.jpg,flowers/images/120.jpg,73,kevin,001,2020-11-21_16h35.15.198,test1,2020.2.5,Win32,60,,,0,72,72,72,1
,,,,z,0.764235,,,,,,flowers/images/311.jpg,flowers/images/123.jpg,74,kevin,001,2020-11-21_16h35.15.198,test1,2020.2.5,Win32,60,,,0,73,73,73,1
,,,,z,0.568,,,,,,flowers/images/33.jpg,flowers/images/146.jpg,75,kevin,001,2020-11-21_16h35.15.198,test1,2020.2.5,Win32,60,,,0,74,74,74,1
,,,,z,0.57309,,,,,,flowers/images/78.jpg,flowers/images/352.jpg,76,kevin,001,2020-11-21_16h35.15.198,test1,2020.2.5,Win32,60,,,0,75,75,75,1
,,,,z,0.65466,,,,,,flowers/images/43.jpg,flowers/images/50.jpg,77,kevin,001,2020-11-21_16h35.15.198,test1,2020.2.5,Win32,60,,,0,76,76,76,1
,,,,m,0.53122,,,,,,flowers/images/373.jpg,flowers/images/78.jpg,78,kevin,001,2020-11-21_16h35.15.198,test1,2020.2.5,Win32,60,,,0,77,77,77,1
,,,,z,0.50792,,,,,,flowers/images/233.jpg,flowers/images/134.jpg,79,kevin,001,2020-11-21_16h35.15.198,test1,2020.2.5,Win32,60,,,0,78,78,78,1
,,,,m,0.77945,,,,,,flowers/images/386.jpg,flowers/images/390.jpg,80,kevin,001,2020-11-21_16h35.15.198,test1,2020.2.5,Win32,60,,,0,79,79,79,1
,,,,z,1.11574,,,,,,flowers/images/205.jpg,flowers/images/388.jpg,81,kevin,001,2020-11-21_16h35.15.198,test1,2020.2.5,Win32,60,,,0,80,80,80,1
,,,,z,1.533795,,,,,,flowers/images/130.jpg,flowers/images/48.jpg,82,kevin,001,2020-11-21_16h35.15.198,test1,2020.2.5,Win32,60,,,0,81,81,81,1
,,,,m,0.680435,,,,,,flowers/images/187.jpg,flowers/images/253.jpg,83,kevin,001,2020-11-21_16h35.15.198,test1,2020.2.5,Win32,60,,,0,82,82,82,1
,,,,z,0.50754,,,,,,flowers/images/232.jpg,flowers/images/141.jpg,84,kevin,001,2020-11-21_16h35.15.198,test1,2020.2.5,Win32,60,,,0,83,83,83,1
,,,,m,1.04224,,,,,,flowers/images/253.jpg,flowers/images/71.jpg,85,kevin,001,2020-11-21_16h35.15.198,test1,2020.2.5,Win32,60,,,0,84,84,84,1
,,,,m,1.332475,,,,,,flowers/images/332.jpg,flowers/images/322.jpg,86,kevin,001,2020-11-21_16h35.15.198,test1,2020.2.5,Win32,60,,,0,85,85,85,1
,,,,z,0.725095,,,,,,flowers/images/103.jpg,flowers/images/182.jpg,87,kevin,001,2020-11-21_16h35.15.198,test1,2020.2.5,Win32,60,,,0,86,86,86,1
,,,,m,0.68985,,,,,,flowers/images/271.jpg,flowers/images/103.jpg,88,kevin,001,2020-11-21_16h35.15.198,test1,2020.2.5,Win32,60,,,0,87,87,87,1
,,,,m,1.077515,,,,,,flowers/images/63.jpg,flowers/images/227.jpg,89,kevin,001,2020-11-21_16h35.15.198,test1,2020.2.5,Win32,60,,,0,88,88,88,1
,,,,z,0.790995,,,,,,flowers/images/382.jpg,flowers/images/359.jpg,90,kevin,001,2020-11-21_16h35.15.198,test1,2020.2.5,Win32,60,,,0,89,89,89,1
,,,,z,1.527855,,,,,,flowers/images/252.jpg,flowers/images/87.jpg,91,kevin,001,2020-11-21_16h35.15.198,test1,2020.2.5,Win32,60,,,0,90,90,90,1
,,,,m,0.878745,,,,,,flowers/images/101.jpg,flowers/images/196.jpg,92,kevin,001,2020-11-21_16h35.15.198,test1,2020.2.5,Win32,60,,,0,91,91,91,1
,,,,z,0.597515,,,,,,flowers/images/104.jpg,flowers/images/270.jpg,93,kevin,001,2020-11-21_16h35.15.198,test1,2020.2.5,Win32,60,,,0,92,92,92,1
,,,,m,1.145545,,,,,,flowers/images/270.jpg,flowers/images/108.jpg,94,kevin,001,2020-11-21_16h35.15.198,test1,2020.2.5,Win32,60,,,0,93,93,93,1
,,,,m,0.714335,,,,,,flowers/images/0.jpg,flowers/images/143.jpg,95,kevin,001,2020-11-21_16h35.15.198,test1,2020.2.5,Win32,60,,,0,94,94,94,1
,,,,z,0.61758,,,,,,flowers/images/348.jpg,flowers/images/276.jpg,96,kevin,001,2020-11-21_16h35.15.198,test1,2020.2.5,Win32,60,,,0,95,95,95,1
,,,,z,0.75959,,,,,,flowers/images/251.jpg,flowers/images/55.jpg,97,kevin,001,2020-11-21_16h35.15.198,test1,2020.2.5,Win32,60,,,0,96,96,96,1
,,,,m,0.614355,,,,,,flowers/images/119.jpg,flowers/images/43.jpg,98,kevin,001,2020-11-21_16h35.15.198,test1,2020.2.5,Win32,60,,,0,97,97,97,1
,,,,z,0.716805,,,,,,flowers/images/158.jpg,flowers/images/46.jpg,99,kevin,001,2020-11-21_16h35.15.198,test1,2020.2.5,Win32,60,,,0,98,98,98,1
,,,,m,0.8869,,,,,,flowers/images/297.jpg,flowers/images/205.jpg,100,kevin,001,2020-11-21_16h35.15.198,test1,2020.2.5,Win32,60,,,0,99,99,99,1
,,,,m,0.8331,,,,,,flowers/images/25.jpg,flowers/images/54.jpg,101,kevin,001,2020-11-21_16h35.15.198,test1,2020.2.5,Win32,60,,,0,100,100,100,1
,,,,z,1.068285,,,,,,flowers/images/67.jpg,flowers/images/331.jpg,102,kevin,001,2020-11-21_16h35.15.198,test1,2020.2.5,Win32,60,,,0,101,101,101,1
,,,,m,1.100095,,,,,,flowers/images/366.jpg,flowers/images/372.jpg,103,kevin,001,2020-11-21_16h35.15.198,test1,2020.2.5,Win32,60,,,0,102,102,102,1
,,,,z,1.691075,,,,,,flowers/images/4.jpg,flowers/images/220.jpg,104,kevin,001,2020-11-21_16h35.15.198,test1,2020.2.5,Win32,60,,,0,103,103,103,1
,,,,z,0.864025,,,,,,flowers/images/90.jpg,flowers/images/148.jpg,105,kevin,001,2020-11-21_16h35.15.198,test1,2020.2.5,Win32,60,,,0,104,104,104,1
,,,,z,0.58236,,,,,,flowers/images/198.jpg,flowers/images/380.jpg,106,kevin,001,2020-11-21_16h35.15.198,test1,2020.2.5,Win32,60,,,0,105,105,105,1
,,,,m,0.61104,,,,,,flowers/images/375.jpg,flowers/images/362.jpg,107,kevin,001,2020-11-21_16h35.15.198,test1,2020.2.5,Win32,60,,,0,106,106,106,1
,,,,z,0.59498,,,,,,flowers/images/372.jpg,flowers/images/98.jpg,108,kevin,001,2020-11-21_16h35.15.198,test1,2020.2.5,Win32,60,,,0,107,107,107,1
,,,,m,0.64824,,,,,,flowers/images/364.jpg,flowers/images/12.jpg,109,kevin,001,2020-11-21_16h35.15.198,test1,2020.2.5,Win32,60,,,0,108,108,108,1
,,,,z,1.1443,,,,,,flowers/images/176.jpg,flowers/images/316.jpg,110,kevin,001,2020-11-21_16h35.15.198,test1,2020.2.5,Win32,60,,,0,109,109,109,1
,,,,m,1.269255,,,,,,flowers/images/48.jpg,flowers/images/75.jpg,111,kevin,001,2020-11-21_16h35.15.198,test1,2020.2.5,Win32,60,,,0,110,110,110,1
,,,,z,0.666445,,,,,,flowers/images/188.jpg,flowers/images/8.jpg,112,kevin,001,2020-11-21_16h35.15.198,test1,2020.2.5,Win32,60,,,0,111,111,111,1
,,,,z,0.959445,,,,,,flowers/images/288.jpg,flowers/images/251.jpg,113,kevin,001,2020-11-21_16h35.15.198,test1,2020.2.5,Win32,60,,,0,112,112,112,1
,,,,m,0.94632,,,,,,flowers/images/349.jpg,flowers/images/282.jpg,114,kevin,001,2020-11-21_16h35.15.198,test1,2020.2.5,Win32,60,,,0,113,113,113,1
,,,,z,0.66457,,,,,,flowers/images/135.jpg,flowers/images/172.jpg,115,kevin,001,2020-11-21_16h35.15.198,test1,2020.2.5,Win32,60,,,0,114,114,114,1
,,,,z,3.80466,,,,,,flowers/images/283.jpg,flowers/images/139.jpg,116,kevin,001,2020-11-21_16h35.15.198,test1,2020.2.5,Win32,60,,,0,115,115,115,1
,,,,m,0.81379,,,,,,flowers/images/301.jpg,flowers/images/102.jpg,117,kevin,001,2020-11-21_16h35.15.198,test1,2020.2.5,Win32,60,,,0,116,116,116,1
,,,,z,1.79223,,,,,,flowers/images/164.jpg,flowers/images/392.jpg,118,kevin,001,2020-11-21_16h35.15.198,test1,2020.2.5,Win32,60,,,0,117,117,117,1
,,,,m,0.79606,,,,,,flowers/images/385.jpg,flowers/images/244.jpg,119,kevin,001,2020-11-21_16h35.15.198,test1,2020.2.5,Win32,60,,,0,118,118,118,1
,,,,m,1.21151,,,,,,flowers/images/137.jpg,flowers/images/104.jpg,120,kevin,001,2020-11-21_16h35.15.198,test1,2020.2.5,Win32,60,,,0,119,119,119,1
,,,,z,0.695255,,,,,,flowers/images/23.jpg,flowers/images/157.jpg,121,kevin,001,2020-11-21_16h35.15.198,test1,2020.2.5,Win32,60,,,0,120,120,120,1
,,,,m,0.770075,,,,,,flowers/images/310.jpg,flowers/images/238.jpg,122,kevin,001,2020-11-21_16h35.15.198,test1,2020.2.5,Win32,60,,,0,121,121,121,1
,,,,m,2.4337,,,,,,flowers/images/215.jpg,flowers/images/222.jpg,123,kevin,001,2020-11-21_16h35.15.198,test1,2020.2.5,Win32,60,,,0,122,122,122,1
,,,,z,0.68185,,,,,,flowers/images/244.jpg,flowers/images/274.jpg,124,kevin,001,2020-11-21_16h35.15.198,test1,2020.2.5,Win32,60,,,0,123,123,123,1
,,,,z,1.113465,,,,,,flowers/images/313.jpg,flowers/images/329.jpg,125,kevin,001,2020-11-21_16h35.15.198,test1,2020.2.5,Win32,60,,,0,124,124,124,1
,,,,z,0.742395,,,,,,flowers/images/207.jpg,flowers/images/188.jpg,126,kevin,001,2020-11-21_16h35.15.198,test1,2020.2.5,Win32,60,,,0,125,125,125,1
,,,,m,1.33173,,,,,,flowers/images/265.jpg,flowers/images/351.jpg,127,kevin,001,2020-11-21_16h35.15.198,test1,2020.2.5,Win32,60,,,0,126,126,126,1
,,,,z,0.5551,,,,,,flowers/images/248.jpg,flowers/images/239.jpg,128,kevin,001,2020-11-21_16h35.15.198,test1,2020.2.5,Win32,60,,,0,127,127,127,1
,,,,z,0.782615,,,,,,flowers/images/204.jpg,flowers/images/225.jpg,129,kevin,001,2020-11-21_16h35.15.198,test1,2020.2.5,Win32,60,,,0,128,128,128,1
,,,,z,1.05608,,,,,,flowers/images/13.jpg,flowers/images/119.jpg,130,kevin,001,2020-11-21_16h35.15.198,test1,2020.2.5,Win32,60,,,0,129,129,129,1
,,,,z,1.3098,,,,,,flowers/images/370.jpg,flowers/images/39.jpg,131,kevin,001,2020-11-21_16h35.15.198,test1,2020.2.5,Win32,60,,,0,130,130,130,1
,,,,z,0.764035,,,,,,flowers/images/397.jpg,flowers/images/69.jpg,132,kevin,001,2020-11-21_16h35.15.198,test1,2020.2.5,Win32,60,,,0,131,131,131,1
,,,,m,0.862615,,,,,,flowers/images/393.jpg,flowers/images/399.jpg,133,kevin,001,2020-11-21_16h35.15.198,test1,2020.2.5,Win32,60,,,0,132,132,132,1
,,,,z,0.56922,,,,,,flowers/images/363.jpg,flowers/images/74.jpg,134,kevin,001,2020-11-21_16h35.15.198,test1,2020.2.5,Win32,60,,,0,133,133,133,1
,,,,m,0.89478,,,,,,flowers/images/254.jpg,flowers/images/174.jpg,135,kevin,001,2020-11-21_16h35.15.198,test1,2020.2.5,Win32,60,,,0,134,134,134,1
,,,,m,0.85417,,,,,,flowers/images/139.jpg,flowers/images/70.jpg,136,kevin,001,2020-11-21_16h35.15.198,test1,2020.2.5,Win32,60,,,0,135,135,135,1
,,,,m,1.086105,,,,,,flowers/images/95.jpg,flowers/images/315.jpg,137,kevin,001,2020-11-21_16h35.15.198,test1,2020.2.5,Win32,60,,,0,136,136,136,1
,,,,m,0.642305,,,,,,flowers/images/294.jpg,flowers/images/334.jpg,138,kevin,001,2020-11-21_16h35.15.198,test1,2020.2.5,Win32,60,,,0,137,137,137,1
,,,,m,0.769705,,,,,,flowers/images/174.jpg,flowers/images/171.jpg,139,kevin,001,2020-11-21_16h35.15.198,test1,2020.2.5,Win32,60,,,0,138,138,138,1
,,,,m,1.002645,,,,,,flowers/images/57.jpg,flowers/images/326.jpg,140,kevin,001,2020-11-21_16h35.15.198,test1,2020.2.5,Win32,60,,,0,139,139,139,1
,,,,m,0.6093,,,,,,flowers/images/246.jpg,flowers/images/82.jpg,141,kevin,001,2020-11-21_16h35.15.198,test1,2020.2.5,Win32,60,,,0,140,140,140,1
,,,,z,0.8409,,,,,,flowers/images/16.jpg,flowers/images/45.jpg,142,kevin,001,2020-11-21_16h35.15.198,test1,2020.2.5,Win32,60,,,0,141,141,141,1
,,,,m,0.579705,,,,,,flowers/images/380.jpg,flowers/images/150.jpg,143,kevin,001,2020-11-21_16h35.15.198,test1,2020.2.5,Win32,60,,,0,142,142,142,1
,,,,z,0.70446,,,,,,flowers/images/109.jpg,flowers/images/350.jpg,144,kevin,001,2020-11-21_16h35.15.198,test1,2020.2.5,Win32,60,,,0,143,143,143,1
,,,,z,1.061215,,,,,,flowers/images/223.jpg,flowers/images/366.jpg,145,kevin,001,2020-11-21_16h35.15.198,test1,2020.2.5,Win32,60,,,0,144,144,144,1
,,,,m,1.11204,,,,,,flowers/images/60.jpg,flowers/images/194.jpg,146,kevin,001,2020-11-21_16h35.15.198,test1,2020.2.5,Win32,60,,,0,145,145,145,1
,,,,z,0.799495,,,,,,flowers/images/268.jpg,flowers/images/332.jpg,147,kevin,001,2020-11-21_16h35.15.198,test1,2020.2.5,Win32,60,,,0,146,146,146,1
,,,,z,0.783495,,,,,,flowers/images/388.jpg,flowers/images/319.jpg,148,kevin,001,2020-11-21_16h35.15.198,test1,2020.2.5,Win32,60,,,0,147,147,147,1
,,,,m,0.68309,,,,,,flowers/images/356.jpg,flowers/images/337.jpg,149,kevin,001,2020-11-21_16h35.15.198,test1,2020.2.5,Win32,60,,,0,148,148,148,1
,,,,z,0.59007,,,,,,flowers/images/384.jpg,flowers/images/344.jpg,150,kevin,001,2020-11-21_16h35.15.198,test1,2020.2.5,Win32,60,,,0,149,149,149,1
,,,,z,1.314065,,,,,,flowers/images/333.jpg,flowers/images/346.jpg,151,kevin,001,2020-11-21_16h35.15.198,test1,2020.2.5,Win32,60,,,0,150,150,150,1
,,,,m,0.616985,,,,,,flowers/images/24.jpg,flowers/images/116.jpg,152,kevin,001,2020-11-21_16h35.15.198,test1,2020.2.5,Win32,60,,,0,151,151,151,1
,,,,z,0.646735,,,,,,flowers/images/220.jpg,flowers/images/235.jpg,153,kevin,001,2020-11-21_16h35.15.198,test1,2020.2.5,Win32,60,,,0,152,152,152,1
,,,,m,0.71166,,,,,,flowers/images/269.jpg,flowers/images/198.jpg,154,kevin,001,2020-11-21_16h35.15.198,test1,2020.2.5,Win32,60,,,0,153,153,153,1
,,,,z,0.635555,,,,,,flowers/images/107.jpg,flowers/images/1.jpg,155,kevin,001,2020-11-21_16h35.15.198,test1,2020.2.5,Win32,60,,,0,154,154,154,1
,,,,z,0.57745,,,,,,flowers/images/314.jpg,flowers/images/147.jpg,156,kevin,001,2020-11-21_16h35.15.198,test1,2020.2.5,Win32,60,,,0,155,155,155,1
,,,,m,0.64621,,,,,,flowers/images/117.jpg,flowers/images/258.jpg,157,kevin,001,2020-11-21_16h35.15.198,test1,2020.2.5,Win32,60,,,0,156,156,156,1
,,,,z,0.580145,,,,,,flowers/images/41.jpg,flowers/images/214.jpg,158,kevin,001,2020-11-21_16h35.15.198,test1,2020.2.5,Win32,60,,,0,157,157,157,1
,,,,m,1.43988,,,,,,flowers/images/306.jpg,flowers/images/118.jpg,159,kevin,001,2020-11-21_16h35.15.198,test1,2020.2.5,Win32,60,,,0,158,158,158,1
,,,,m,0.59758,,,,,,flowers/images/299.jpg,flowers/images/40.jpg,160,kevin,001,2020-11-21_16h35.15.198,test1,2020.2.5,Win32,60,,,0,159,159,159,1
,,,,z,0.770175,,,,,,flowers/images/50.jpg,flowers/images/291.jpg,161,kevin,001,2020-11-21_16h35.15.198,test1,2020.2.5,Win32,60,,,0,160,160,160,1
,,,,z,0.883075,,,,,,flowers/images/238.jpg,flowers/images/129.jpg,162,kevin,001,2020-11-21_16h35.15.198,test1,2020.2.5,Win32,60,,,0,161,161,161,1
,,,,z,0.85095,,,,,,flowers/images/30.jpg,flowers/images/136.jpg,163,kevin,001,2020-11-21_16h35.15.198,test1,2020.2.5,Win32,60,,,0,162,162,162,1
,,,,z,0.846945,,,,,,flowers/images/211.jpg,flowers/images/306.jpg,164,kevin,001,2020-11-21_16h35.15.198,test1,2020.2.5,Win32,60,,,0,163,163,163,1
,,,,z,0.763095,,,,,,flowers/images/227.jpg,flowers/images/57.jpg,165,kevin,001,2020-11-21_16h35.15.198,test1,2020.2.5,Win32,60,,,0,164,164,164,1
,,,,z,1.127095,,,,,,flowers/images/242.jpg,flowers/images/61.jpg,166,kevin,001,2020-11-21_16h35.15.198,test1,2020.2.5,Win32,60,,,0,165,165,165,1
,,,,z,0.529585,,,,,,flowers/images/387.jpg,flowers/images/263.jpg,167,kevin,001,2020-11-21_16h35.15.198,test1,2020.2.5,Win32,60,,,0,166,166,166,1
,,,,z,0.586315,,,,,,flowers/images/193.jpg,flowers/images/367.jpg,168,kevin,001,2020-11-21_16h35.15.198,test1,2020.2.5,Win32,60,,,0,167,167,167,1
,,,,m,0.763135,,,,,,flowers/images/231.jpg,flowers/images/18.jpg,169,kevin,001,2020-11-21_16h35.15.198,test1,2020.2.5,Win32,60,,,0,168,168,168,1
,,,,m,1.041895,,,,,,flowers/images/154.jpg,flowers/images/32.jpg,170,kevin,001,2020-11-21_16h35.15.198,test1,2020.2.5,Win32,60,,,0,169,169,169,1
,,,,z,0.574695,,,,,,flowers/images/79.jpg,flowers/images/301.jpg,171,kevin,001,2020-11-21_16h35.15.198,test1,2020.2.5,Win32,60,,,0,170,170,170,1
,,,,z,0.820315,,,,,,flowers/images/263.jpg,flowers/images/210.jpg,172,kevin,001,2020-11-21_16h35.15.198,test1,2020.2.5,Win32,60,,,0,171,171,171,1
,,,,m,1.26348,,,,,,flowers/images/383.jpg,flowers/images/354.jpg,173,kevin,001,2020-11-21_16h35.15.198,test1,2020.2.5,Win32,60,,,0,172,172,172,1
,,,,z,0.7733,,,,,,flowers/images/290.jpg,flowers/images/212.jpg,174,kevin,001,2020-11-21_16h35.15.198,test1,2020.2.5,Win32,60,,,0,173,173,173,1
,,,,z,0.78571,,,,,,flowers/images/206.jpg,flowers/images/397.jpg,175,kevin,001,2020-11-21_16h35.15.198,test1,2020.2.5,Win32,60,,,0,174,174,174,1
,,,,m,0.9134,,,,,,flowers/images/317.jpg,flowers/images/297.jpg,176,kevin,001,2020-11-21_16h35.15.198,test1,2020.2.5,Win32,60,,,0,175,175,175,1
,,,,z,0.88599,,,,,,flowers/images/329.jpg,flowers/images/255.jpg,177,kevin,001,2020-11-21_16h35.15.198,test1,2020.2.5,Win32,60,,,0,176,176,176,1
,,,,m,0.67268,,,,,,flowers/images/225.jpg,flowers/images/91.jpg,178,kevin,001,2020-11-21_16h35.15.198,test1,2020.2.5,Win32,60,,,0,177,177,177,1
,,,,z,0.749545,,,,,,flowers/images/11.jpg,flowers/images/256.jpg,179,kevin,001,2020-11-21_16h35.15.198,test1,2020.2.5,Win32,60,,,0,178,178,178,1
,,,,z,0.65317,,,,,,flowers/images/234.jpg,flowers/images/64.jpg,180,kevin,001,2020-11-21_16h35.15.198,test1,2020.2.5,Win32,60,,,0,179,179,179,1
,,,,m,0.94481,,,,,,flowers/images/342.jpg,flowers/images/26.jpg,181,kevin,001,2020-11-21_16h35.15.198,test1,2020.2.5,Win32,60,,,0,180,180,180,1
,,,,z,0.686915,,,,,,flowers/images/391.jpg,flowers/images/286.jpg,182,kevin,001,2020-11-21_16h35.15.198,test1,2020.2.5,Win32,60,,,0,181,181,181,1
,,,,m,2.280795,,,,,,flowers/images/221.jpg,flowers/images/268.jpg,183,kevin,001,2020-11-21_16h35.15.198,test1,2020.2.5,Win32,60,,,0,182,182,182,1
,,,,m,1.31355,,,,,,flowers/images/210.jpg,flowers/images/84.jpg,184,kevin,001,2020-11-21_16h35.15.198,test1,2020.2.5,Win32,60,,,0,183,183,183,1
,,,,m,0.78983,,,,,,flowers/images/138.jpg,flowers/images/77.jpg,185,kevin,001,2020-11-21_16h35.15.198,test1,2020.2.5,Win32,60,,,0,184,184,184,1
,,,,m,1.57015,,,,,,flowers/images/315.jpg,flowers/images/269.jpg,186,kevin,001,2020-11-21_16h35.15.198,test1,2020.2.5,Win32,60,,,0,185,185,185,1
,,,,m,1.3737,,,,,,flowers/images/308.jpg,flowers/images/265.jpg,187,kevin,001,2020-11-21_16h35.15.198,test1,2020.2.5,Win32,60,,,0,186,186,186,1
,,,,m,0.97538,,,,,,flowers/images/88.jpg,flowers/images/56.jpg,188,kevin,001,2020-11-21_16h35.15.198,test1,2020.2.5,Win32,60,,,0,187,187,187,1
,,,,z,0.62628,,,,,,flowers/images/102.jpg,flowers/images/126.jpg,189,kevin,001,2020-11-21_16h35.15.198,test1,2020.2.5,Win32,60,,,0,188,188,188,1
,,,,m,0.938475,,,,,,flowers/images/132.jpg,flowers/images/389.jpg,190,kevin,001,2020-11-21_16h35.15.198,test1,2020.2.5,Win32,60,,,0,189,189,189,1
,,,,z,0.82409,,,,,,flowers/images/186.jpg,flowers/images/144.jpg,191,kevin,001,2020-11-21_16h35.15.198,test1,2020.2.5,Win32,60,,,0,190,190,190,1
,,,,m,1.5959,,,,,,flowers/images/284.jpg,flowers/images/92.jpg,192,kevin,001,2020-11-21_16h35.15.198,test1,2020.2.5,Win32,60,,,0,191,191,191,1
,,,,z,1.95289,,,,,,flowers/images/396.jpg,flowers/images/24.jpg,193,kevin,001,2020-11-21_16h35.15.198,test1,2020.2.5,Win32,60,,,0,192,192,192,1
,,,,z,0.809195,,,,,,flowers/images/374.jpg,flowers/images/287.jpg,194,kevin,001,2020-11-21_16h35.15.198,test1,2020.2.5,Win32,60,,,0,193,193,193,1
,,,,m,0.90057,,,,,,flowers/images/140.jpg,flowers/images/267.jpg,195,kevin,001,2020-11-21_16h35.15.198,test1,2020.2.5,Win32,60,,,0,194,194,194,1
,,,,z,0.592815,,,,,,flowers/images/267.jpg,flowers/images/343.jpg,196,kevin,001,2020-11-21_16h35.15.198,test1,2020.2.5,Win32,60,,,0,195,195,195,1
,,,,m,0.72461,,,,,,flowers/images/286.jpg,flowers/images/35.jpg,197,kevin,001,2020-11-21_16h35.15.198,test1,2020.2.5,Win32,60,,,0,196,196,196,1
,,,,z,0.70805,,,,,,flowers/images/143.jpg,flowers/images/391.jpg,198,kevin,001,2020-11-21_16h35.15.198,test1,2020.2.5,Win32,60,,,0,197,197,197,1
,,,,m,2.12954,,,,,,flowers/images/196.jpg,flowers/images/155.jpg,199,kevin,001,2020-11-21_16h35.15.198,test1,2020.2.5,Win32,60,,,0,198,198,198,1
,,,,z,0.55819,,,,,,flowers/images/281.jpg,flowers/images/394.jpg,200,kevin,001,2020-11-21_16h35.15.198,test1,2020.2.5,Win32,60,,,0,199,199,199,1
