key_resp.keys,key_resp.rt,key_resp_3.keys,key_resp_3.rt,key_resp_2.keys,key_resp_2.rt,trials.thisRepN,trials.thisTrialN,trials.thisN,trials.thisIndex,trials.ran,image_left,image_right,trial_num,participant,session,date,expName,psychopyVersion,OS,frameRate,key_resp_4.keys,key_resp_4.rt,trials_2.thisRepN,trials_2.thisTrialN,trials_2.thisN,trials_2.thisIndex,trials_2.ran
space,9.128,space,13.441,m,14.917,0,0,0,0,1,flowers/images/125.jpg,flowers/images/165.jpg,1,Kristina,001,2020-11-20_14h53.01.894,test1,2020.2.5,MacIntel,60,,,,,,,
,,,,z,2.592,0,1,1,1,1,flowers/images/168.jpg,flowers/images/195.jpg,2,Kristina,001,2020-11-20_14h53.01.894,test1,2020.2.5,MacIntel,60,,,,,,,
,,,,m,1.854,0,2,2,2,1,flowers/images/114.jpg,flowers/images/131.jpg,3,Kristina,001,2020-11-20_14h53.01.894,test1,2020.2.5,MacIntel,60,,,,,,,
,,,,m,8.287,0,3,3,3,1,flowers/images/110.jpg,flowers/images/241.jpg,4,Kristina,001,2020-11-20_14h53.01.894,test1,2020.2.5,MacIntel,60,,,,,,,
,,,,m,3.493,0,4,4,4,1,flowers/images/157.jpg,flowers/images/170.jpg,5,Kristina,001,2020-11-20_14h53.01.894,test1,2020.2.5,MacIntel,60,,,,,,,
,,,,m,1.337,0,5,5,5,1,flowers/images/291.jpg,flowers/images/302.jpg,6,Kristina,001,2020-11-20_14h53.01.894,test1,2020.2.5,MacIntel,60,,,,,,,
,,,,z,0.98,0,6,6,6,1,flowers/images/335.jpg,flowers/images/272.jpg,7,Kristina,001,2020-11-20_14h53.01.894,test1,2020.2.5,MacIntel,60,,,,,,,
,,,,m,1.368,0,7,7,7,1,flowers/images/122.jpg,flowers/images/72.jpg,8,Kristina,001,2020-11-20_14h53.01.894,test1,2020.2.5,MacIntel,60,,,,,,,
,,,,m,1.015,0,8,8,8,1,flowers/images/240.jpg,flowers/images/67.jpg,9,Kristina,001,2020-11-20_14h53.01.894,test1,2020.2.5,MacIntel,60,,,,,,,
,,,,m,1.184,0,9,9,9,1,flowers/images/324.jpg,flowers/images/180.jpg,10,Kristina,001,2020-11-20_14h53.01.894,test1,2020.2.5,MacIntel,60,,,,,,,
,,,,z,0.945,0,10,10,10,1,flowers/images/148.jpg,flowers/images/275.jpg,11,Kristina,001,2020-11-20_14h53.01.894,test1,2020.2.5,MacIntel,60,,,,,,,
,,,,m,1.018,0,11,11,11,1,flowers/images/61.jpg,flowers/images/2.jpg,12,Kristina,001,2020-11-20_14h53.01.894,test1,2020.2.5,MacIntel,60,,,,,,,
,,,,m,1.367,0,12,12,12,1,flowers/images/20.jpg,flowers/images/378.jpg,13,Kristina,001,2020-11-20_14h53.01.894,test1,2020.2.5,MacIntel,60,,,,,,,
,,,,z,1.013,0,13,13,13,1,flowers/images/181.jpg,flowers/images/363.jpg,14,Kristina,001,2020-11-20_14h53.01.894,test1,2020.2.5,MacIntel,60,,,,,,,
,,,,m,1.142,0,14,14,14,1,flowers/images/87.jpg,flowers/images/187.jpg,15,Kristina,001,2020-11-20_14h53.01.894,test1,2020.2.5,MacIntel,60,,,,,,,
,,,,z,1.572,0,15,15,15,1,flowers/images/150.jpg,flowers/images/281.jpg,16,Kristina,001,2020-11-20_14h53.01.894,test1,2020.2.5,MacIntel,60,,,,,,,
,,,,z,1.307,0,16,16,16,1,flowers/images/112.jpg,flowers/images/176.jpg,17,Kristina,001,2020-11-20_14h53.01.894,test1,2020.2.5,MacIntel,60,,,,,,,
,,,,m,2.421,0,17,17,17,1,flowers/images/236.jpg,flowers/images/243.jpg,18,Kristina,001,2020-11-20_14h53.01.894,test1,2020.2.5,MacIntel,60,,,,,,,
,,,,z,0.914,0,18,18,18,1,flowers/images/133.jpg,flowers/images/247.jpg,19,Kristina,001,2020-11-20_14h53.01.894,test1,2020.2.5,MacIntel,60,,,,,,,
,,,,z,1.545,0,19,19,19,1,flowers/images/136.jpg,flowers/images/164.jpg,20,Kristina,001,2020-11-20_14h53.01.894,test1,2020.2.5,MacIntel,60,,,,,,,
,,,,z,1.469,0,20,20,20,1,flowers/images/185.jpg,flowers/images/211.jpg,21,Kristina,001,2020-11-20_14h53.01.894,test1,2020.2.5,MacIntel,60,,,,,,,
,,,,m,1.084,0,21,21,21,1,flowers/images/118.jpg,flowers/images/371.jpg,22,Kristina,001,2020-11-20_14h53.01.894,test1,2020.2.5,MacIntel,60,,,,,,,
,,,,m,1.599,0,22,22,22,1,flowers/images/177.jpg,flowers/images/5.jpg,23,Kristina,001,2020-11-20_14h53.01.894,test1,2020.2.5,MacIntel,60,,,,,,,
,,,,z,1.809,0,23,23,23,1,flowers/images/91.jpg,flowers/images/215.jpg,24,Kristina,001,2020-11-20_14h53.01.894,test1,2020.2.5,MacIntel,60,,,,,,,
,,,,m,0.946,0,24,24,24,1,flowers/images/277.jpg,flowers/images/11.jpg,25,Kristina,001,2020-11-20_14h53.01.894,test1,2020.2.5,MacIntel,60,,,,,,,
,,,,z,1.685,0,25,25,25,1,flowers/images/197.jpg,flowers/images/25.jpg,26,Kristina,001,2020-11-20_14h53.01.894,test1,2020.2.5,MacIntel,60,,,,,,,
,,,,z,1.849,0,26,26,26,1,flowers/images/131.jpg,flowers/images/63.jpg,27,Kristina,001,2020-11-20_14h53.01.894,test1,2020.2.5,MacIntel,60,,,,,,,
,,,,z,2.929,0,27,27,27,1,flowers/images/106.jpg,flowers/images/221.jpg,28,Kristina,001,2020-11-20_14h53.01.894,test1,2020.2.5,MacIntel,60,,,,,,,
,,,,m,2.522,0,28,28,28,1,flowers/images/295.jpg,flowers/images/307.jpg,29,Kristina,001,2020-11-20_14h53.01.894,test1,2020.2.5,MacIntel,60,,,,,,,
,,,,z,3.598,0,29,29,29,1,flowers/images/368.jpg,flowers/images/384.jpg,30,Kristina,001,2020-11-20_14h53.01.894,test1,2020.2.5,MacIntel,60,,,,,,,
,,,,z,3.65,0,30,30,30,1,flowers/images/96.jpg,flowers/images/140.jpg,31,Kristina,001,2020-11-20_14h53.01.894,test1,2020.2.5,MacIntel,60,,,,,,,
,,,,z,2.098,0,31,31,31,1,flowers/images/272.jpg,flowers/images/59.jpg,32,Kristina,001,2020-11-20_14h53.01.894,test1,2020.2.5,MacIntel,60,,,,,,,
,,,,z,1.028,0,32,32,32,1,flowers/images/389.jpg,flowers/images/110.jpg,33,Kristina,001,2020-11-20_14h53.01.894,test1,2020.2.5,MacIntel,60,,,,,,,
,,,,m,0.95,0,33,33,33,1,flowers/images/237.jpg,flowers/images/387.jpg,34,Kristina,001,2020-11-20_14h53.01.894,test1,2020.2.5,MacIntel,60,,,,,,,
,,,,z,1.083,0,34,34,34,1,flowers/images/35.jpg,flowers/images/142.jpg,35,Kristina,001,2020-11-20_14h53.01.894,test1,2020.2.5,MacIntel,60,,,,,,,
,,,,z,0.929,0,35,35,35,1,flowers/images/49.jpg,flowers/images/200.jpg,36,Kristina,001,2020-11-20_14h53.01.894,test1,2020.2.5,MacIntel,60,,,,,,,
,,,,m,1.634,0,36,36,36,1,flowers/images/142.jpg,flowers/images/328.jpg,37,Kristina,001,2020-11-20_14h53.01.894,test1,2020.2.5,MacIntel,60,,,,,,,
,,,,z,2.108,0,37,37,37,1,flowers/images/339.jpg,flowers/images/264.jpg,38,Kristina,001,2020-11-20_14h53.01.894,test1,2020.2.5,MacIntel,60,,,,,,,
,,,,m,1.22,0,38,38,38,1,flowers/images/394.jpg,flowers/images/266.jpg,39,Kristina,001,2020-11-20_14h53.01.894,test1,2020.2.5,MacIntel,60,,,,,,,
,,,,m,0.927,0,39,39,39,1,flowers/images/89.jpg,flowers/images/298.jpg,40,Kristina,001,2020-11-20_14h53.01.894,test1,2020.2.5,MacIntel,60,,,,,,,
,,,,z,1.44,0,40,40,40,1,flowers/images/325.jpg,flowers/images/47.jpg,41,Kristina,001,2020-11-20_14h53.01.894,test1,2020.2.5,MacIntel,60,,,,,,,
,,,,z,1.275,0,41,41,41,1,flowers/images/40.jpg,flowers/images/162.jpg,42,Kristina,001,2020-11-20_14h53.01.894,test1,2020.2.5,MacIntel,60,,,,,,,
,,,,z,3.509,0,42,42,42,1,flowers/images/266.jpg,flowers/images/181.jpg,43,Kristina,001,2020-11-20_14h53.01.894,test1,2020.2.5,MacIntel,60,,,,,,,
,,,,z,0.944,0,43,43,43,1,flowers/images/100.jpg,flowers/images/396.jpg,44,Kristina,001,2020-11-20_14h53.01.894,test1,2020.2.5,MacIntel,60,,,,,,,
,,,,z,1.95,0,44,44,44,1,flowers/images/144.jpg,flowers/images/231.jpg,45,Kristina,001,2020-11-20_14h53.01.894,test1,2020.2.5,MacIntel,60,,,,,,,
,,,,z,2.111,0,45,45,45,1,flowers/images/289.jpg,flowers/images/202.jpg,46,Kristina,001,2020-11-20_14h53.01.894,test1,2020.2.5,MacIntel,60,,,,,,,
,,,,m,1.21,0,46,46,46,1,flowers/images/178.jpg,flowers/images/86.jpg,47,Kristina,001,2020-11-20_14h53.01.894,test1,2020.2.5,MacIntel,60,,,,,,,
,,,,z,1.278,0,47,47,47,1,flowers/images/360.jpg,flowers/images/393.jpg,48,Kristina,001,2020-11-20_14h53.01.894,test1,2020.2.5,MacIntel,60,,,,,,,
,,,,m,1.95,0,48,48,48,1,flowers/images/108.jpg,flowers/images/288.jpg,49,Kristina,001,2020-11-20_14h53.01.894,test1,2020.2.5,MacIntel,60,,,,,,,
,,,,z,1.936,0,49,49,49,1,flowers/images/165.jpg,flowers/images/154.jpg,50,Kristina,001,2020-11-20_14h53.01.894,test1,2020.2.5,MacIntel,60,,,,,,,
,,,,m,1.937,0,50,50,50,1,flowers/images/27.jpg,flowers/images/121.jpg,51,Kristina,001,2020-11-20_14h53.01.894,test1,2020.2.5,MacIntel,60,,,,,,,
,,,,z,1.234,0,51,51,51,1,flowers/images/302.jpg,flowers/images/203.jpg,52,Kristina,001,2020-11-20_14h53.01.894,test1,2020.2.5,MacIntel,60,,,,,,,
,,,,m,1.684,0,52,52,52,1,flowers/images/255.jpg,flowers/images/42.jpg,53,Kristina,001,2020-11-20_14h53.01.894,test1,2020.2.5,MacIntel,60,,,,,,,
,,,,m,1.189,0,53,53,53,1,flowers/images/31.jpg,flowers/images/289.jpg,54,Kristina,001,2020-11-20_14h53.01.894,test1,2020.2.5,MacIntel,60,,,,,,,
,,,,z,0.903,0,54,54,54,1,flowers/images/66.jpg,flowers/images/246.jpg,55,Kristina,001,2020-11-20_14h53.01.894,test1,2020.2.5,MacIntel,60,,,,,,,
,,,,z,1.169,0,55,55,55,1,flowers/images/355.jpg,flowers/images/115.jpg,56,Kristina,001,2020-11-20_14h53.01.894,test1,2020.2.5,MacIntel,60,,,,,,,
,,,,z,1.24,0,56,56,56,1,flowers/images/241.jpg,flowers/images/345.jpg,57,Kristina,001,2020-11-20_14h53.01.894,test1,2020.2.5,MacIntel,60,,,,,,,
,,,,m,1.046,0,57,57,57,1,flowers/images/296.jpg,flowers/images/37.jpg,58,Kristina,001,2020-11-20_14h53.01.894,test1,2020.2.5,MacIntel,60,,,,,,,
,,,,z,1.186,0,58,58,58,1,flowers/images/235.jpg,flowers/images/373.jpg,59,Kristina,001,2020-11-20_14h53.01.894,test1,2020.2.5,MacIntel,60,,,,,,,
,,,,m,1.527,0,59,59,59,1,flowers/images/173.jpg,flowers/images/93.jpg,60,Kristina,001,2020-11-20_14h53.01.894,test1,2020.2.5,MacIntel,60,,,,,,,
,,,,z,1.465,0,60,60,60,1,flowers/images/331.jpg,flowers/images/88.jpg,61,Kristina,001,2020-11-20_14h53.01.894,test1,2020.2.5,MacIntel,60,,,,,,,
,,,,m,0.911,0,61,61,61,1,flowers/images/134.jpg,flowers/images/127.jpg,62,Kristina,001,2020-11-20_14h53.01.894,test1,2020.2.5,MacIntel,60,,,,,,,
,,,,z,1.131,0,62,62,62,1,flowers/images/285.jpg,flowers/images/201.jpg,63,Kristina,001,2020-11-20_14h53.01.894,test1,2020.2.5,MacIntel,60,,,,,,,
,,,,m,0.954,0,63,63,63,1,flowers/images/151.jpg,flowers/images/52.jpg,64,Kristina,001,2020-11-20_14h53.01.894,test1,2020.2.5,MacIntel,60,,,,,,,
,,,,z,0.92,0,64,64,64,1,flowers/images/208.jpg,flowers/images/186.jpg,65,Kristina,001,2020-11-20_14h53.01.894,test1,2020.2.5,MacIntel,60,,,,,,,
,,,,m,1.009,0,65,65,65,1,flowers/images/80.jpg,flowers/images/124.jpg,66,Kristina,001,2020-11-20_14h53.01.894,test1,2020.2.5,MacIntel,60,,,,,,,
,,,,z,1.129,0,66,66,66,1,flowers/images/303.jpg,flowers/images/347.jpg,67,Kristina,001,2020-11-20_14h53.01.894,test1,2020.2.5,MacIntel,60,,,,,,,
,,,,m,1.044,0,67,67,67,1,flowers/images/6.jpg,flowers/images/262.jpg,68,Kristina,001,2020-11-20_14h53.01.894,test1,2020.2.5,MacIntel,60,,,,,,,
,,,,m,1.263,0,68,68,68,1,flowers/images/85.jpg,flowers/images/20.jpg,69,Kristina,001,2020-11-20_14h53.01.894,test1,2020.2.5,MacIntel,60,,,,,,,
,,,,z,1.571,0,69,69,69,1,flowers/images/392.jpg,flowers/images/15.jpg,70,Kristina,001,2020-11-20_14h53.01.894,test1,2020.2.5,MacIntel,60,,,,,,,
,,,,z,2.151,0,70,70,70,1,flowers/images/341.jpg,flowers/images/357.jpg,71,Kristina,001,2020-11-20_14h53.01.894,test1,2020.2.5,MacIntel,60,,,,,,,
,,,,m,1.071,0,71,71,71,1,flowers/images/293.jpg,flowers/images/158.jpg,72,Kristina,001,2020-11-20_14h53.01.894,test1,2020.2.5,MacIntel,60,,,,,,,
,,,,z,0.904,0,72,72,72,1,flowers/images/390.jpg,flowers/images/58.jpg,73,Kristina,001,2020-11-20_14h53.01.894,test1,2020.2.5,MacIntel,60,,,,,,,
,,,,m,1.008,0,73,73,73,1,flowers/images/82.jpg,flowers/images/16.jpg,74,Kristina,001,2020-11-20_14h53.01.894,test1,2020.2.5,MacIntel,60,,,,,,,
,,,,m,2.422,0,74,74,74,1,flowers/images/336.jpg,flowers/images/130.jpg,75,Kristina,001,2020-11-20_14h53.01.894,test1,2020.2.5,MacIntel,60,,,,,,,
,,,,m,0.959,0,75,75,75,1,flowers/images/160.jpg,flowers/images/105.jpg,76,Kristina,001,2020-11-20_14h53.01.894,test1,2020.2.5,MacIntel,60,,,,,,,
,,,,z,0.895,0,76,76,76,1,flowers/images/328.jpg,flowers/images/305.jpg,77,Kristina,001,2020-11-20_14h53.01.894,test1,2020.2.5,MacIntel,60,,,,,,,
,,,,m,1.11,0,77,77,77,1,flowers/images/180.jpg,flowers/images/249.jpg,78,Kristina,001,2020-11-20_14h53.01.894,test1,2020.2.5,MacIntel,60,,,,,,,
,,,,z,1.016,0,78,78,78,1,flowers/images/169.jpg,flowers/images/94.jpg,79,Kristina,001,2020-11-20_14h53.01.894,test1,2020.2.5,MacIntel,60,,,,,,,
,,,,m,1.072,0,79,79,79,1,flowers/images/145.jpg,flowers/images/277.jpg,80,Kristina,001,2020-11-20_14h53.01.894,test1,2020.2.5,MacIntel,60,,,,,,,
,,,,z,1.062,0,80,80,80,1,flowers/images/358.jpg,flowers/images/197.jpg,81,Kristina,001,2020-11-20_14h53.01.894,test1,2020.2.5,MacIntel,60,,,,,,,
,,,,z,0.997,0,81,81,81,1,flowers/images/71.jpg,flowers/images/128.jpg,82,Kristina,001,2020-11-20_14h53.01.894,test1,2020.2.5,MacIntel,60,,,,,,,
,,,,m,1.405,0,82,82,82,1,flowers/images/192.jpg,flowers/images/379.jpg,83,Kristina,001,2020-11-20_14h53.01.894,test1,2020.2.5,MacIntel,60,,,,,,,
,,,,z,1.464,0,83,83,83,1,flowers/images/189.jpg,flowers/images/271.jpg,84,Kristina,001,2020-11-20_14h53.01.894,test1,2020.2.5,MacIntel,60,,,,,,,
,,,,z,1.974,0,84,84,84,1,flowers/images/15.jpg,flowers/images/28.jpg,85,Kristina,001,2020-11-20_14h53.01.894,test1,2020.2.5,MacIntel,60,,,,,,,
,,,,m,1.247,0,85,85,85,1,flowers/images/171.jpg,flowers/images/97.jpg,86,Kristina,001,2020-11-20_14h53.01.894,test1,2020.2.5,MacIntel,60,,,,,,,
,,,,m,1.928,0,86,86,86,1,flowers/images/287.jpg,flowers/images/29.jpg,87,Kristina,001,2020-11-20_14h53.01.894,test1,2020.2.5,MacIntel,60,,,,,,,
,,,,m,1.533,0,87,87,87,1,flowers/images/381.jpg,flowers/images/356.jpg,88,Kristina,001,2020-11-20_14h53.01.894,test1,2020.2.5,MacIntel,60,,,,,,,
,,,,m,4.649,0,88,88,88,1,flowers/images/76.jpg,flowers/images/10.jpg,89,Kristina,001,2020-11-20_14h53.01.894,test1,2020.2.5,MacIntel,60,,,,,,,
,,,,z,1.017,0,89,89,89,1,flowers/images/239.jpg,flowers/images/226.jpg,90,Kristina,001,2020-11-20_14h53.01.894,test1,2020.2.5,MacIntel,60,,,,,,,
,,,,z,1.389,0,90,90,90,1,flowers/images/398.jpg,flowers/images/368.jpg,91,Kristina,001,2020-11-20_14h53.01.894,test1,2020.2.5,MacIntel,60,,,,,,,
,,,,m,0.976,0,91,91,91,1,flowers/images/21.jpg,flowers/images/53.jpg,92,Kristina,001,2020-11-20_14h53.01.894,test1,2020.2.5,MacIntel,60,,,,,,,
,,,,z,1.637,0,92,92,92,1,flowers/images/352.jpg,flowers/images/230.jpg,93,Kristina,001,2020-11-20_14h53.01.894,test1,2020.2.5,MacIntel,60,,,,,,,
,,,,z,1.193,0,93,93,93,1,flowers/images/54.jpg,flowers/images/280.jpg,94,Kristina,001,2020-11-20_14h53.01.894,test1,2020.2.5,MacIntel,60,,,,,,,
,,,,z,1.13,0,94,94,94,1,flowers/images/259.jpg,flowers/images/184.jpg,95,Kristina,001,2020-11-20_14h53.01.894,test1,2020.2.5,MacIntel,60,,,,,,,
,,,,m,1.654,0,95,95,95,1,flowers/images/7.jpg,flowers/images/137.jpg,96,Kristina,001,2020-11-20_14h53.01.894,test1,2020.2.5,MacIntel,60,,,,,,,
,,,,m,1.306,0,96,96,96,1,flowers/images/292.jpg,flowers/images/364.jpg,97,Kristina,001,2020-11-20_14h53.01.894,test1,2020.2.5,MacIntel,60,,,,,,,
,,,,m,1.488,0,97,97,97,1,flowers/images/84.jpg,flowers/images/245.jpg,98,Kristina,001,2020-11-20_14h53.01.894,test1,2020.2.5,MacIntel,60,,,,,,,
,,,,m,1.221,0,98,98,98,1,flowers/images/141.jpg,flowers/images/183.jpg,99,Kristina,001,2020-11-20_14h53.01.894,test1,2020.2.5,MacIntel,60,,,,,,,
,,,,z,1.453,0,99,99,99,1,flowers/images/45.jpg,flowers/images/375.jpg,100,Kristina,001,2020-11-20_14h53.01.894,test1,2020.2.5,MacIntel,60,,,,,,,
,,,,m,0.985,0,100,100,100,1,flowers/images/111.jpg,flowers/images/395.jpg,101,Kristina,001,2020-11-20_14h53.01.894,test1,2020.2.5,MacIntel,60,,,,,,,
,,,,m,1.144,0,101,101,101,1,flowers/images/46.jpg,flowers/images/360.jpg,102,Kristina,001,2020-11-20_14h53.01.894,test1,2020.2.5,MacIntel,60,,,,,,,
,,,,z,1.604,0,102,102,102,1,flowers/images/399.jpg,flowers/images/4.jpg,103,Kristina,001,2020-11-20_14h53.01.894,test1,2020.2.5,MacIntel,60,,,,,,,
,,,,m,0.991,0,103,103,103,1,flowers/images/250.jpg,flowers/images/113.jpg,104,Kristina,001,2020-11-20_14h53.01.894,test1,2020.2.5,MacIntel,60,,,,,,,
,,,,z,1.145,0,104,104,104,1,flowers/images/359.jpg,flowers/images/283.jpg,105,Kristina,001,2020-11-20_14h53.01.894,test1,2020.2.5,MacIntel,60,,,,,,,
,,,,m,2.126,0,105,105,105,1,flowers/images/209.jpg,flowers/images/309.jpg,106,Kristina,001,2020-11-20_14h53.01.894,test1,2020.2.5,MacIntel,60,,,,,,,
,,,,m,1.017,0,106,106,106,1,flowers/images/219.jpg,flowers/images/285.jpg,107,Kristina,001,2020-11-20_14h53.01.894,test1,2020.2.5,MacIntel,60,,,,,,,
,,,,m,1.114,0,107,107,107,1,flowers/images/159.jpg,flowers/images/377.jpg,108,Kristina,001,2020-11-20_14h53.01.894,test1,2020.2.5,MacIntel,60,,,,,,,
,,,,m,1.157,0,108,108,108,1,flowers/images/17.jpg,flowers/images/365.jpg,109,Kristina,001,2020-11-20_14h53.01.894,test1,2020.2.5,MacIntel,60,,,,,,,
,,,,z,1.767,0,109,109,109,1,flowers/images/247.jpg,flowers/images/14.jpg,110,Kristina,001,2020-11-20_14h53.01.894,test1,2020.2.5,MacIntel,60,,,,,,,
,,,,z,0.984,0,110,110,110,1,flowers/images/357.jpg,flowers/images/229.jpg,111,Kristina,001,2020-11-20_14h53.01.894,test1,2020.2.5,MacIntel,60,,,,,,,
,,,,z,1.283,0,111,111,111,1,flowers/images/378.jpg,flowers/images/299.jpg,112,Kristina,001,2020-11-20_14h53.01.894,test1,2020.2.5,MacIntel,60,,,,,,,
,,,,z,1.426,0,112,112,112,1,flowers/images/191.jpg,flowers/images/304.jpg,113,Kristina,001,2020-11-20_14h53.01.894,test1,2020.2.5,MacIntel,60,,,,,,,
,,,,m,1.07,0,113,113,113,1,flowers/images/195.jpg,flowers/images/44.jpg,114,Kristina,001,2020-11-20_14h53.01.894,test1,2020.2.5,MacIntel,60,,,,,,,
,,,,z,1.186,0,114,114,114,1,flowers/images/126.jpg,flowers/images/161.jpg,115,Kristina,001,2020-11-20_14h53.01.894,test1,2020.2.5,MacIntel,60,,,,,,,
,,,,z,1.27,0,115,115,115,1,flowers/images/340.jpg,flowers/images/178.jpg,116,Kristina,001,2020-11-20_14h53.01.894,test1,2020.2.5,MacIntel,60,,,,,,,
,,,,m,1.066,0,116,116,116,1,flowers/images/201.jpg,flowers/images/21.jpg,117,Kristina,001,2020-11-20_14h53.01.894,test1,2020.2.5,MacIntel,60,,,,,,,
,,,,z,1.092,0,117,117,117,1,flowers/images/307.jpg,flowers/images/122.jpg,118,Kristina,001,2020-11-20_14h53.01.894,test1,2020.2.5,MacIntel,60,,,,,,,
,,,,z,1.568,0,118,118,118,1,flowers/images/194.jpg,flowers/images/23.jpg,119,Kristina,001,2020-11-20_14h53.01.894,test1,2020.2.5,MacIntel,60,,,,,,,
,,,,m,0.687,0,119,119,119,1,flowers/images/318.jpg,flowers/images/293.jpg,120,Kristina,001,2020-11-20_14h53.01.894,test1,2020.2.5,MacIntel,60,,,,,,,
,,,,z,0.828,0,120,120,120,1,flowers/images/69.jpg,flowers/images/327.jpg,121,Kristina,001,2020-11-20_14h53.01.894,test1,2020.2.5,MacIntel,60,,,,,,,
,,,,z,1.129,0,121,121,121,1,flowers/images/98.jpg,flowers/images/208.jpg,122,Kristina,001,2020-11-20_14h53.01.894,test1,2020.2.5,MacIntel,60,,,,,,,
,,,,m,2.589,0,122,122,122,1,flowers/images/184.jpg,flowers/images/96.jpg,123,Kristina,001,2020-11-20_14h53.01.894,test1,2020.2.5,MacIntel,60,,,,,,,
,,,,z,1.031,0,123,123,123,1,flowers/images/44.jpg,flowers/images/317.jpg,124,Kristina,001,2020-11-20_14h53.01.894,test1,2020.2.5,MacIntel,60,,,,,,,
,,,,m,1.768,0,124,124,124,1,flowers/images/222.jpg,flowers/images/9.jpg,125,Kristina,001,2020-11-20_14h53.01.894,test1,2020.2.5,MacIntel,60,,,,,,,
,,,,m,1.034,0,125,125,125,1,flowers/images/218.jpg,flowers/images/153.jpg,126,Kristina,001,2020-11-20_14h53.01.894,test1,2020.2.5,MacIntel,60,,,,,,,
,,,,m,2.642,0,126,126,126,1,flowers/images/275.jpg,flowers/images/295.jpg,127,Kristina,001,2020-11-20_14h53.01.894,test1,2020.2.5,MacIntel,60,,,,,,,
,,,,m,2.495,0,127,127,127,1,flowers/images/172.jpg,flowers/images/34.jpg,128,Kristina,001,2020-11-20_14h53.01.894,test1,2020.2.5,MacIntel,60,,,,,,,
,,,,z,1.293,0,128,128,128,1,flowers/images/345.jpg,flowers/images/89.jpg,129,Kristina,001,2020-11-20_14h53.01.894,test1,2020.2.5,MacIntel,60,,,,,,,
,,,,z,1.124,0,129,129,129,1,flowers/images/334.jpg,flowers/images/376.jpg,130,Kristina,001,2020-11-20_14h53.01.894,test1,2020.2.5,MacIntel,60,,,,,,,
,,,,z,1.091,0,130,130,130,1,flowers/images/93.jpg,flowers/images/6.jpg,131,Kristina,001,2020-11-20_14h53.01.894,test1,2020.2.5,MacIntel,60,,,,,,,
,,,,z,1.151,0,131,131,131,1,flowers/images/183.jpg,flowers/images/76.jpg,132,Kristina,001,2020-11-20_14h53.01.894,test1,2020.2.5,MacIntel,60,,,,,,,
,,,,m,0.944,0,132,132,132,1,flowers/images/304.jpg,flowers/images/224.jpg,133,Kristina,001,2020-11-20_14h53.01.894,test1,2020.2.5,MacIntel,60,,,,,,,
,,,,z,1.185,0,133,133,133,1,flowers/images/330.jpg,flowers/images/81.jpg,134,Kristina,001,2020-11-20_14h53.01.894,test1,2020.2.5,MacIntel,60,,,,,,,
,,,,m,1.277,0,134,134,134,1,flowers/images/147.jpg,flowers/images/36.jpg,135,Kristina,001,2020-11-20_14h53.01.894,test1,2020.2.5,MacIntel,60,,,,,,,
,,,,m,1.106,0,135,135,135,1,flowers/images/62.jpg,flowers/images/321.jpg,136,Kristina,001,2020-11-20_14h53.01.894,test1,2020.2.5,MacIntel,60,,,,,,,
,,,,m,1.626,0,136,136,136,1,flowers/images/367.jpg,flowers/images/311.jpg,137,Kristina,001,2020-11-20_14h53.01.894,test1,2020.2.5,MacIntel,60,,,,,,,
,,,,z,1.173,0,137,137,137,1,flowers/images/326.jpg,flowers/images/7.jpg,138,Kristina,001,2020-11-20_14h53.01.894,test1,2020.2.5,MacIntel,60,,,,,,,
,,,,m,0.98,0,138,138,138,1,flowers/images/28.jpg,flowers/images/382.jpg,139,Kristina,001,2020-11-20_14h53.01.894,test1,2020.2.5,MacIntel,60,,,,,,,
,,,,z,1.397,0,139,139,139,1,flowers/images/156.jpg,flowers/images/152.jpg,140,Kristina,001,2020-11-20_14h53.01.894,test1,2020.2.5,MacIntel,60,,,,,,,
,,,,m,0.882,0,140,140,140,1,flowers/images/113.jpg,flowers/images/167.jpg,141,Kristina,001,2020-11-20_14h53.01.894,test1,2020.2.5,MacIntel,60,,,,,,,
,,,,m,1.278,0,141,141,141,1,flowers/images/155.jpg,flowers/images/342.jpg,142,Kristina,001,2020-11-20_14h53.01.894,test1,2020.2.5,MacIntel,60,,,,,,,
,,,,m,0.939,0,142,142,142,1,flowers/images/213.jpg,flowers/images/353.jpg,143,Kristina,001,2020-11-20_14h53.01.894,test1,2020.2.5,MacIntel,60,,,,,,,
,,,,z,1.225,0,143,143,143,1,flowers/images/298.jpg,flowers/images/90.jpg,144,Kristina,001,2020-11-20_14h53.01.894,test1,2020.2.5,MacIntel,60,,,,,,,
,,,,z,1.031,0,144,144,144,1,flowers/images/217.jpg,flowers/images/240.jpg,145,Kristina,001,2020-11-20_14h53.01.894,test1,2020.2.5,MacIntel,60,,,,,,,
,,,,m,0.909,0,145,145,145,1,flowers/images/97.jpg,flowers/images/133.jpg,146,Kristina,001,2020-11-20_14h53.01.894,test1,2020.2.5,MacIntel,60,,,,,,,
,,,,z,0.868,0,146,146,146,1,flowers/images/354.jpg,flowers/images/310.jpg,147,Kristina,001,2020-11-20_14h53.01.894,test1,2020.2.5,MacIntel,60,,,,,,,
,,,,z,1.425,0,147,147,147,1,flowers/images/377.jpg,flowers/images/273.jpg,148,Kristina,001,2020-11-20_14h53.01.894,test1,2020.2.5,MacIntel,60,,,,,,,
,,,,z,1.58,0,148,148,148,1,flowers/images/121.jpg,flowers/images/294.jpg,149,Kristina,001,2020-11-20_14h53.01.894,test1,2020.2.5,MacIntel,60,,,,,,,
,,,,z,0.949,0,149,149,149,1,flowers/images/14.jpg,flowers/images/101.jpg,150,Kristina,001,2020-11-20_14h53.01.894,test1,2020.2.5,MacIntel,60,,,,,,,
,,,,z,2.274,0,150,150,150,1,flowers/images/321.jpg,flowers/images/51.jpg,151,Kristina,001,2020-11-20_14h53.01.894,test1,2020.2.5,MacIntel,60,,,,,,,
,,,,z,1.254,0,151,151,151,1,flowers/images/362.jpg,flowers/images/175.jpg,152,Kristina,001,2020-11-20_14h53.01.894,test1,2020.2.5,MacIntel,60,,,,,,,
,,,,m,1.05,0,152,152,152,1,flowers/images/203.jpg,flowers/images/248.jpg,153,Kristina,001,2020-11-20_14h53.01.894,test1,2020.2.5,MacIntel,60,,,,,,,
,,,,m,3.688,0,153,153,153,1,flowers/images/12.jpg,flowers/images/300.jpg,154,Kristina,001,2020-11-20_14h53.01.894,test1,2020.2.5,MacIntel,60,,,,,,,
,,,,z,2.401,0,154,154,154,1,flowers/images/365.jpg,flowers/images/218.jpg,155,Kristina,001,2020-11-20_14h53.01.894,test1,2020.2.5,MacIntel,60,,,,,,,
,,,,z,2.097,0,155,155,155,1,flowers/images/75.jpg,flowers/images/109.jpg,156,Kristina,001,2020-11-20_14h53.01.894,test1,2020.2.5,MacIntel,60,,,,,,,
,,,,m,1.999,0,156,156,156,1,flowers/images/127.jpg,flowers/images/333.jpg,157,Kristina,001,2020-11-20_14h53.01.894,test1,2020.2.5,MacIntel,60,,,,,,,
,,,,m,1.877,0,157,157,157,1,flowers/images/258.jpg,flowers/images/135.jpg,158,Kristina,001,2020-11-20_14h53.01.894,test1,2020.2.5,MacIntel,60,,,,,,,
,,,,z,1.572,0,158,158,158,1,flowers/images/343.jpg,flowers/images/65.jpg,159,Kristina,001,2020-11-20_14h53.01.894,test1,2020.2.5,MacIntel,60,,,,,,,
,,,,m,1.758,0,159,159,159,1,flowers/images/58.jpg,flowers/images/138.jpg,160,Kristina,001,2020-11-20_14h53.01.894,test1,2020.2.5,MacIntel,60,,,,,,,
,,,,m,1.215,0,160,160,160,1,flowers/images/94.jpg,flowers/images/234.jpg,161,Kristina,001,2020-11-20_14h53.01.894,test1,2020.2.5,MacIntel,60,,,,,,,
,,,,z,1.086,0,161,161,161,1,flowers/images/379.jpg,flowers/images/207.jpg,162,Kristina,001,2020-11-20_14h53.01.894,test1,2020.2.5,MacIntel,60,,,,,,,
,,,,m,1.238,0,162,162,162,1,flowers/images/128.jpg,flowers/images/79.jpg,163,Kristina,001,2020-11-20_14h53.01.894,test1,2020.2.5,MacIntel,60,,,,,,,
,,,,m,1.149,0,163,163,163,1,flowers/images/47.jpg,flowers/images/85.jpg,164,Kristina,001,2020-11-20_14h53.01.894,test1,2020.2.5,MacIntel,60,,,,,,,
,,,,m,1.372,0,164,164,164,1,flowers/images/19.jpg,flowers/images/191.jpg,165,Kristina,001,2020-11-20_14h53.01.894,test1,2020.2.5,MacIntel,60,,,,,,,
,,,,m,1.105,0,165,165,165,1,flowers/images/32.jpg,flowers/images/259.jpg,166,Kristina,001,2020-11-20_14h53.01.894,test1,2020.2.5,MacIntel,60,,,,,,,
,,,,z,1.04,0,166,166,166,1,flowers/images/323.jpg,flowers/images/284.jpg,167,Kristina,001,2020-11-20_14h53.01.894,test1,2020.2.5,MacIntel,60,,,,,,,
,,,,m,1.582,0,167,167,167,1,flowers/images/395.jpg,flowers/images/348.jpg,168,Kristina,001,2020-11-20_14h53.01.894,test1,2020.2.5,MacIntel,60,,,,,,,
,,,,m,2.536,0,168,168,168,1,flowers/images/279.jpg,flowers/images/370.jpg,169,Kristina,001,2020-11-20_14h53.01.894,test1,2020.2.5,MacIntel,60,,,,,,,
,,,,z,1.216,0,169,169,169,1,flowers/images/264.jpg,flowers/images/125.jpg,170,Kristina,001,2020-11-20_14h53.01.894,test1,2020.2.5,MacIntel,60,,,,,,,
,,,,z,1.356,0,170,170,170,1,flowers/images/77.jpg,flowers/images/318.jpg,171,Kristina,001,2020-11-20_14h53.01.894,test1,2020.2.5,MacIntel,60,,,,,,,
,,,,z,2.35,0,171,171,171,1,flowers/images/376.jpg,flowers/images/242.jpg,172,Kristina,001,2020-11-20_14h53.01.894,test1,2020.2.5,MacIntel,60,,,,,,,
,,,,z,1.514,0,172,172,172,1,flowers/images/351.jpg,flowers/images/132.jpg,173,Kristina,001,2020-11-20_14h53.01.894,test1,2020.2.5,MacIntel,60,,,,,,,
,,,,m,1.359,0,173,173,173,1,flowers/images/305.jpg,flowers/images/252.jpg,174,Kristina,001,2020-11-20_14h53.01.894,test1,2020.2.5,MacIntel,60,,,,,,,
,,,,m,1.296,0,174,174,174,1,flowers/images/29.jpg,flowers/images/217.jpg,175,Kristina,001,2020-11-20_14h53.01.894,test1,2020.2.5,MacIntel,60,,,,,,,
,,,,m,1.123,0,175,175,175,1,flowers/images/3.jpg,flowers/images/228.jpg,176,Kristina,001,2020-11-20_14h53.01.894,test1,2020.2.5,MacIntel,60,,,,,,,
,,,,m,1.624,0,176,176,176,1,flowers/images/199.jpg,flowers/images/330.jpg,177,Kristina,001,2020-11-20_14h53.01.894,test1,2020.2.5,MacIntel,60,,,,,,,
,,,,z,1.26,0,177,177,177,1,flowers/images/274.jpg,flowers/images/179.jpg,178,Kristina,001,2020-11-20_14h53.01.894,test1,2020.2.5,MacIntel,60,,,,,,,
,,,,z,1.189,0,178,178,178,1,flowers/images/346.jpg,flowers/images/290.jpg,179,Kristina,001,2020-11-20_14h53.01.894,test1,2020.2.5,MacIntel,60,,,,,,,
,,,,m,1.006,0,179,179,179,1,flowers/images/56.jpg,flowers/images/204.jpg,180,Kristina,001,2020-11-20_14h53.01.894,test1,2020.2.5,MacIntel,60,,,,,,,
,,,,z,1.043,0,180,180,180,1,flowers/images/179.jpg,flowers/images/114.jpg,181,Kristina,001,2020-11-20_14h53.01.894,test1,2020.2.5,MacIntel,60,,,,,,,
,,,,m,3.032,0,181,181,181,1,flowers/images/36.jpg,flowers/images/223.jpg,182,Kristina,001,2020-11-20_14h53.01.894,test1,2020.2.5,MacIntel,60,,,,,,,
,,,,m,1.379,0,182,182,182,1,flowers/images/344.jpg,flowers/images/168.jpg,183,Kristina,001,2020-11-20_14h53.01.894,test1,2020.2.5,MacIntel,60,,,,,,,
,,,,z,0.85,0,183,183,183,1,flowers/images/153.jpg,flowers/images/22.jpg,184,Kristina,001,2020-11-20_14h53.01.894,test1,2020.2.5,MacIntel,60,,,,,,,
,,,,m,0.932,0,184,184,184,1,flowers/images/39.jpg,flowers/images/323.jpg,185,Kristina,001,2020-11-20_14h53.01.894,test1,2020.2.5,MacIntel,60,,,,,,,
,,,,m,1.488,0,185,185,185,1,flowers/images/327.jpg,flowers/images/349.jpg,186,Kristina,001,2020-11-20_14h53.01.894,test1,2020.2.5,MacIntel,60,,,,,,,
,,,,z,1.41,0,186,186,186,1,flowers/images/81.jpg,flowers/images/30.jpg,187,Kristina,001,2020-11-20_14h53.01.894,test1,2020.2.5,MacIntel,60,,,,,,,
,,,,m,1.257,0,187,187,187,1,flowers/images/42.jpg,flowers/images/107.jpg,188,Kristina,001,2020-11-20_14h53.01.894,test1,2020.2.5,MacIntel,60,,,,,,,
,,,,z,2.791,0,188,188,188,1,flowers/images/18.jpg,flowers/images/358.jpg,189,Kristina,001,2020-11-20_14h53.01.894,test1,2020.2.5,MacIntel,60,,,,,,,
,,,,z,1.902,0,189,189,189,1,flowers/images/200.jpg,flowers/images/385.jpg,190,Kristina,001,2020-11-20_14h53.01.894,test1,2020.2.5,MacIntel,60,,,,,,,
,,,,z,1.22,0,190,190,190,1,flowers/images/369.jpg,flowers/images/233.jpg,191,Kristina,001,2020-11-20_14h53.01.894,test1,2020.2.5,MacIntel,60,,,,,,,
,,,,z,1.768,0,191,191,191,1,flowers/images/309.jpg,flowers/images/320.jpg,192,Kristina,001,2020-11-20_14h53.01.894,test1,2020.2.5,MacIntel,60,,,,,,,
,,,,z,1.173,0,192,192,192,1,flowers/images/64.jpg,flowers/images/303.jpg,193,Kristina,001,2020-11-20_14h53.01.894,test1,2020.2.5,MacIntel,60,,,,,,,
,,,,z,2.223,0,193,193,193,1,flowers/images/86.jpg,flowers/images/216.jpg,194,Kristina,001,2020-11-20_14h53.01.894,test1,2020.2.5,MacIntel,60,,,,,,,
,,,,m,0.991,0,194,194,194,1,flowers/images/260.jpg,flowers/images/361.jpg,195,Kristina,001,2020-11-20_14h53.01.894,test1,2020.2.5,MacIntel,60,,,,,,,
,,,,z,1.904,0,195,195,195,1,flowers/images/9.jpg,flowers/images/173.jpg,196,Kristina,001,2020-11-20_14h53.01.894,test1,2020.2.5,MacIntel,60,,,,,,,
,,,,m,1.07,0,196,196,196,1,flowers/images/22.jpg,flowers/images/41.jpg,197,Kristina,001,2020-11-20_14h53.01.894,test1,2020.2.5,MacIntel,60,,,,,,,
,,,,m,1.437,0,197,197,197,1,flowers/images/214.jpg,flowers/images/145.jpg,198,Kristina,001,2020-11-20_14h53.01.894,test1,2020.2.5,MacIntel,60,,,,,,,
,,,,m,1.079,0,198,198,198,1,flowers/images/72.jpg,flowers/images/308.jpg,199,Kristina,001,2020-11-20_14h53.01.894,test1,2020.2.5,MacIntel,60,,,,,,,
,,,,z,1.157,0,199,199,199,1,flowers/images/34.jpg,flowers/images/237.jpg,200,Kristina,001,2020-11-20_14h53.01.894,test1,2020.2.5,MacIntel,60,,,,,,,
,,,,z,8.273,,,,,,flowers/images/166.jpg,flowers/images/169.jpg,1,Kristina,001,2020-11-20_14h53.01.894,test1,2020.2.5,MacIntel,60,space,10.176,0,0,0,0,1
,,,,m,2.357,,,,,,flowers/images/161.jpg,flowers/images/68.jpg,2,Kristina,001,2020-11-20_14h53.01.894,test1,2020.2.5,MacIntel,60,,,0,1,1,1,1
,,,,m,0.736,,,,,,flowers/images/319.jpg,flowers/images/341.jpg,3,Kristina,001,2020-11-20_14h53.01.894,test1,2020.2.5,MacIntel,60,,,0,2,2,2,1
,,,,z,0.962,,,,,,flowers/images/322.jpg,flowers/images/111.jpg,4,Kristina,001,2020-11-20_14h53.01.894,test1,2020.2.5,MacIntel,60,,,0,3,3,3,1
,,,,z,1.058,,,,,,flowers/images/2.jpg,flowers/images/95.jpg,5,Kristina,001,2020-11-20_14h53.01.894,test1,2020.2.5,MacIntel,60,,,0,4,4,4,1
,,,,z,3.05,,,,,,flowers/images/276.jpg,flowers/images/66.jpg,6,Kristina,001,2020-11-20_14h53.01.894,test1,2020.2.5,MacIntel,60,,,0,5,5,5,1
,,,,m,0.789,,,,,,flowers/images/116.jpg,flowers/images/206.jpg,7,Kristina,001,2020-11-20_14h53.01.894,test1,2020.2.5,MacIntel,60,,,0,6,6,6,1
,,,,z,0.874,,,,,,flowers/images/282.jpg,flowers/images/314.jpg,8,Kristina,001,2020-11-20_14h53.01.894,test1,2020.2.5,MacIntel,60,,,0,7,7,7,1
,,,,z,1.063,,,,,,flowers/images/261.jpg,flowers/images/260.jpg,9,Kristina,001,2020-11-20_14h53.01.894,test1,2020.2.5,MacIntel,60,,,0,8,8,8,1
,,,,z,0.745,,,,,,flowers/images/353.jpg,flowers/images/151.jpg,10,Kristina,001,2020-11-20_14h53.01.894,test1,2020.2.5,MacIntel,60,,,0,9,9,9,1
,,,,z,2.162,,,,,,flowers/images/216.jpg,flowers/images/156.jpg,11,Kristina,001,2020-11-20_14h53.01.894,test1,2020.2.5,MacIntel,60,,,0,10,10,10,1
,,,,z,0.925,,,,,,flowers/images/320.jpg,flowers/images/292.jpg,12,Kristina,001,2020-11-20_14h53.01.894,test1,2020.2.5,MacIntel,60,,,0,11,11,11,1
,,,,m,0.806,,,,,,flowers/images/149.jpg,flowers/images/279.jpg,13,Kristina,001,2020-11-20_14h53.01.894,test1,2020.2.5,MacIntel,60,,,0,12,12,12,1
,,,,m,1.449,,,,,,flowers/images/163.jpg,flowers/images/219.jpg,14,Kristina,001,2020-11-20_14h53.01.894,test1,2020.2.5,MacIntel,60,,,0,13,13,13,1
,,,,m,2.407,,,,,,flowers/images/10.jpg,flowers/images/232.jpg,15,Kristina,001,2020-11-20_14h53.01.894,test1,2020.2.5,MacIntel,60,,,0,14,14,14,1
,,,,m,0.919,,,,,,flowers/images/55.jpg,flowers/images/73.jpg,16,Kristina,001,2020-11-20_14h53.01.894,test1,2020.2.5,MacIntel,60,,,0,15,15,15,1
,,,,z,0.964,,,,,,flowers/images/123.jpg,flowers/images/189.jpg,17,Kristina,001,2020-11-20_14h53.01.894,test1,2020.2.5,MacIntel,60,,,0,16,16,16,1
,,,,z,0.92,,,,,,flowers/images/37.jpg,flowers/images/254.jpg,18,Kristina,001,2020-11-20_14h53.01.894,test1,2020.2.5,MacIntel,60,,,0,17,17,17,1
,,,,z,0.942,,,,,,flowers/images/230.jpg,flowers/images/166.jpg,19,Kristina,001,2020-11-20_14h53.01.894,test1,2020.2.5,MacIntel,60,,,0,18,18,18,1
,,,,m,0.941,,,,,,flowers/images/338.jpg,flowers/images/33.jpg,20,Kristina,001,2020-11-20_14h53.01.894,test1,2020.2.5,MacIntel,60,,,0,19,19,19,1
,,,,z,0.892,,,,,,flowers/images/337.jpg,flowers/images/193.jpg,21,Kristina,001,2020-11-20_14h53.01.894,test1,2020.2.5,MacIntel,60,,,0,20,20,20,1
,,,,z,1.33,,,,,,flowers/images/83.jpg,flowers/images/339.jpg,22,Kristina,001,2020-11-20_14h53.01.894,test1,2020.2.5,MacIntel,60,,,0,21,21,21,1
,,,,z,0.725,,,,,,flowers/images/190.jpg,flowers/images/99.jpg,23,Kristina,001,2020-11-20_14h53.01.894,test1,2020.2.5,MacIntel,60,,,0,22,22,22,1
,,,,m,1.032,,,,,,flowers/images/257.jpg,flowers/images/369.jpg,24,Kristina,001,2020-11-20_14h53.01.894,test1,2020.2.5,MacIntel,60,,,0,23,23,23,1
,,,,m,1.282,,,,,,flowers/images/280.jpg,flowers/images/355.jpg,25,Kristina,001,2020-11-20_14h53.01.894,test1,2020.2.5,MacIntel,60,,,0,24,24,24,1
,,,,m,1.146,,,,,,flowers/images/105.jpg,flowers/images/338.jpg,26,Kristina,001,2020-11-20_14h53.01.894,test1,2020.2.5,MacIntel,60,,,0,25,25,25,1
,,,,m,1.69,,,,,,flowers/images/202.jpg,flowers/images/3.jpg,27,Kristina,001,2020-11-20_14h53.01.894,test1,2020.2.5,MacIntel,60,,,0,26,26,26,1
,,,,m,1.086,,,,,,flowers/images/212.jpg,flowers/images/38.jpg,28,Kristina,001,2020-11-20_14h53.01.894,test1,2020.2.5,MacIntel,60,,,0,27,27,27,1
,,,,z,2.33,,,,,,flowers/images/152.jpg,flowers/images/0.jpg,29,Kristina,001,2020-11-20_14h53.01.894,test1,2020.2.5,MacIntel,60,,,0,28,28,28,1
,,,,z,1.427,,,,,,flowers/images/170.jpg,flowers/images/296.jpg,30,Kristina,001,2020-11-20_14h53.01.894,test1,2020.2.5,MacIntel,60,,,0,29,29,29,1
,,,,z,2.223,,,,,,flowers/images/74.jpg,flowers/images/80.jpg,31,Kristina,001,2020-11-20_14h53.01.894,test1,2020.2.5,MacIntel,60,,,0,30,30,30,1
,,,,z,1.206,,,,,,flowers/images/226.jpg,flowers/images/117.jpg,32,Kristina,001,2020-11-20_14h53.01.894,test1,2020.2.5,MacIntel,60,,,0,31,31,31,1
,,,,m,0.932,,,,,,flowers/images/1.jpg,flowers/images/19.jpg,33,Kristina,001,2020-11-20_14h53.01.894,test1,2020.2.5,MacIntel,60,,,0,32,32,32,1
,,,,m,0.75,,,,,,flowers/images/182.jpg,flowers/images/335.jpg,34,Kristina,001,2020-11-20_14h53.01.894,test1,2020.2.5,MacIntel,60,,,0,33,33,33,1
,,,,z,0.883,,,,,,flowers/images/245.jpg,flowers/images/62.jpg,35,Kristina,001,2020-11-20_14h53.01.894,test1,2020.2.5,MacIntel,60,,,0,34,34,34,1
,,,,z,1.935,,,,,,flowers/images/167.jpg,flowers/images/49.jpg,36,Kristina,001,2020-11-20_14h53.01.894,test1,2020.2.5,MacIntel,60,,,0,35,35,35,1
,,,,z,0.868,,,,,,flowers/images/38.jpg,flowers/images/250.jpg,37,Kristina,001,2020-11-20_14h53.01.894,test1,2020.2.5,MacIntel,60,,,0,36,36,36,1
,,,,z,1.418,,,,,,flowers/images/124.jpg,flowers/images/324.jpg,38,Kristina,001,2020-11-20_14h53.01.894,test1,2020.2.5,MacIntel,60,,,0,37,37,37,1
,,,,z,1.663,,,,,,flowers/images/92.jpg,flowers/images/13.jpg,39,Kristina,001,2020-11-20_14h53.01.894,test1,2020.2.5,MacIntel,60,,,0,38,38,38,1
,,,,z,0.925,,,,,,flowers/images/120.jpg,flowers/images/374.jpg,40,Kristina,001,2020-11-20_14h53.01.894,test1,2020.2.5,MacIntel,60,,,0,39,39,39,1
,,,,m,1.049,,,,,,flowers/images/350.jpg,flowers/images/100.jpg,41,Kristina,001,2020-11-20_14h53.01.894,test1,2020.2.5,MacIntel,60,,,0,40,40,40,1
,,,,z,0.802,,,,,,flowers/images/68.jpg,flowers/images/236.jpg,42,Kristina,001,2020-11-20_14h53.01.894,test1,2020.2.5,MacIntel,60,,,0,41,41,41,1
,,,,m,2.791,,,,,,flowers/images/5.jpg,flowers/images/340.jpg,43,Kristina,001,2020-11-20_14h53.01.894,test1,2020.2.5,MacIntel,60,,,0,42,42,42,1
,,,,m,0.847,,,,,,flowers/images/99.jpg,flowers/images/313.jpg,44,Kristina,001,2020-11-20_14h53.01.894,test1,2020.2.5,MacIntel,60,,,0,43,43,43,1
,,,,z,1.498,,,,,,flowers/images/229.jpg,flowers/images/177.jpg,45,Kristina,001,2020-11-20_14h53.01.894,test1,2020.2.5,MacIntel,60,,,0,44,44,44,1
,,,,z,1.211,,,,,,flowers/images/361.jpg,flowers/images/383.jpg,46,Kristina,001,2020-11-20_14h53.01.894,test1,2020.2.5,MacIntel,60,,,0,45,45,45,1
,,,,m,1.34,,,,,,flowers/images/129.jpg,flowers/images/398.jpg,47,Kristina,001,2020-11-20_14h53.01.894,test1,2020.2.5,MacIntel,60,,,0,46,46,46,1
,,,,z,1.059,,,,,,flowers/images/228.jpg,flowers/images/159.jpg,48,Kristina,001,2020-11-20_14h53.01.894,test1,2020.2.5,MacIntel,60,,,0,47,47,47,1
,,,,z,0.984,,,,,,flowers/images/65.jpg,flowers/images/312.jpg,49,Kristina,001,2020-11-20_14h53.01.894,test1,2020.2.5,MacIntel,60,,,0,48,48,48,1
,,,,z,0.8,,,,,,flowers/images/73.jpg,flowers/images/163.jpg,50,Kristina,001,2020-11-20_14h53.01.894,test1,2020.2.5,MacIntel,60,,,0,49,49,49,1
,,,,m,0.862,,,,,,flowers/images/224.jpg,flowers/images/278.jpg,51,Kristina,001,2020-11-20_14h53.01.894,test1,2020.2.5,MacIntel,60,,,0,50,50,50,1
,,,,m,0.848,,,,,,flowers/images/312.jpg,flowers/images/185.jpg,52,Kristina,001,2020-11-20_14h53.01.894,test1,2020.2.5,MacIntel,60,,,0,51,51,51,1
,,,,m,0.91,,,,,,flowers/images/256.jpg,flowers/images/112.jpg,53,Kristina,001,2020-11-20_14h53.01.894,test1,2020.2.5,MacIntel,60,,,0,52,52,52,1
,,,,m,0.947,,,,,,flowers/images/26.jpg,flowers/images/261.jpg,54,Kristina,001,2020-11-20_14h53.01.894,test1,2020.2.5,MacIntel,60,,,0,53,53,53,1
,,,,m,1.208,,,,,,flowers/images/51.jpg,flowers/images/106.jpg,55,Kristina,001,2020-11-20_14h53.01.894,test1,2020.2.5,MacIntel,60,,,0,54,54,54,1
,,,,z,0.711,,,,,,flowers/images/371.jpg,flowers/images/160.jpg,56,Kristina,001,2020-11-20_14h53.01.894,test1,2020.2.5,MacIntel,60,,,0,55,55,55,1
,,,,z,1.165,,,,,,flowers/images/59.jpg,flowers/images/257.jpg,57,Kristina,001,2020-11-20_14h53.01.894,test1,2020.2.5,MacIntel,60,,,0,56,56,56,1
,,,,m,0.688,,,,,,flowers/images/347.jpg,flowers/images/190.jpg,58,Kristina,001,2020-11-20_14h53.01.894,test1,2020.2.5,MacIntel,60,,,0,57,57,57,1
,,,,m,1.132,,,,,,flowers/images/8.jpg,flowers/images/209.jpg,59,Kristina,001,2020-11-20_14h53.01.894,test1,2020.2.5,MacIntel,60,,,0,58,58,58,1
,,,,z,0.926,,,,,,flowers/images/278.jpg,flowers/images/31.jpg,60,Kristina,001,2020-11-20_14h53.01.894,test1,2020.2.5,MacIntel,60,,,0,59,59,59,1
,,,,m,1.014,,,,,,flowers/images/262.jpg,flowers/images/325.jpg,61,Kristina,001,2020-11-20_14h53.01.894,test1,2020.2.5,MacIntel,60,,,0,60,60,60,1
,,,,m,0.965,,,,,,flowers/images/273.jpg,flowers/images/83.jpg,62,Kristina,001,2020-11-20_14h53.01.894,test1,2020.2.5,MacIntel,60,,,0,61,61,61,1
,,,,z,0.865,,,,,,flowers/images/52.jpg,flowers/images/17.jpg,63,Kristina,001,2020-11-20_14h53.01.894,test1,2020.2.5,MacIntel,60,,,0,62,62,62,1
,,,,z,0.982,,,,,,flowers/images/243.jpg,flowers/images/27.jpg,64,Kristina,001,2020-11-20_14h53.01.894,test1,2020.2.5,MacIntel,60,,,0,63,63,63,1
,,,,z,0.742,,,,,,flowers/images/175.jpg,flowers/images/192.jpg,65,Kristina,001,2020-11-20_14h53.01.894,test1,2020.2.5,MacIntel,60,,,0,64,64,64,1
,,,,z,0.793,,,,,,flowers/images/53.jpg,flowers/images/199.jpg,66,Kristina,001,2020-11-20_14h53.01.894,test1,2020.2.5,MacIntel,60,,,0,65,65,65,1
,,,,z,1.203,,,,,,flowers/images/316.jpg,flowers/images/381.jpg,67,Kristina,001,2020-11-20_14h53.01.894,test1,2020.2.5,MacIntel,60,,,0,66,66,66,1
,,,,z,0.883,,,,,,flowers/images/249.jpg,flowers/images/213.jpg,68,Kristina,001,2020-11-20_14h53.01.894,test1,2020.2.5,MacIntel,60,,,0,67,67,67,1
,,,,m,0.867,,,,,,flowers/images/70.jpg,flowers/images/60.jpg,69,Kristina,001,2020-11-20_14h53.01.894,test1,2020.2.5,MacIntel,60,,,0,68,68,68,1
,,,,m,0.611,,,,,,flowers/images/300.jpg,flowers/images/386.jpg,70,Kristina,001,2020-11-20_14h53.01.894,test1,2020.2.5,MacIntel,60,,,0,69,69,69,1
,,,,z,1.409,,,,,,flowers/images/162.jpg,flowers/images/149.jpg,71,Kristina,001,2020-11-20_14h53.01.894,test1,2020.2.5,MacIntel,60,,,0,70,70,70,1
,,,,m,0.926,,,,,,flowers/images/146.jpg,flowers/images/336.jpg,72,Kristina,001,2020-11-20_14h53.01.894,test1,2020.2.5,MacIntel,60,,,0,71,71,71,1
,,,,m,0.908,,,,,,flowers/images/115.jpg,flowers/images/120.jpg,73,Kristina,001,2020-11-20_14h53.01.894,test1,2020.2.5,MacIntel,60,,,0,72,72,72,1
,,,,m,1.03,,,,,,flowers/images/311.jpg,flowers/images/123.jpg,74,Kristina,001,2020-11-20_14h53.01.894,test1,2020.2.5,MacIntel,60,,,0,73,73,73,1
,,,,z,0.919,,,,,,flowers/images/33.jpg,flowers/images/146.jpg,75,Kristina,001,2020-11-20_14h53.01.894,test1,2020.2.5,MacIntel,60,,,0,74,74,74,1
,,,,m,1.323,,,,,,flowers/images/78.jpg,flowers/images/352.jpg,76,Kristina,001,2020-11-20_14h53.01.894,test1,2020.2.5,MacIntel,60,,,0,75,75,75,1
,,,,z,1.459,,,,,,flowers/images/43.jpg,flowers/images/50.jpg,77,Kristina,001,2020-11-20_14h53.01.894,test1,2020.2.5,MacIntel,60,,,0,76,76,76,1
,,,,m,0.855,,,,,,flowers/images/373.jpg,flowers/images/78.jpg,78,Kristina,001,2020-11-20_14h53.01.894,test1,2020.2.5,MacIntel,60,,,0,77,77,77,1
,,,,z,0.933,,,,,,flowers/images/233.jpg,flowers/images/134.jpg,79,Kristina,001,2020-11-20_14h53.01.894,test1,2020.2.5,MacIntel,60,,,0,78,78,78,1
,,,,z,0.952,,,,,,flowers/images/386.jpg,flowers/images/390.jpg,80,Kristina,001,2020-11-20_14h53.01.894,test1,2020.2.5,MacIntel,60,,,0,79,79,79,1
,,,,z,1.002,,,,,,flowers/images/205.jpg,flowers/images/388.jpg,81,Kristina,001,2020-11-20_14h53.01.894,test1,2020.2.5,MacIntel,60,,,0,80,80,80,1
,,,,m,1.075,,,,,,flowers/images/130.jpg,flowers/images/48.jpg,82,Kristina,001,2020-11-20_14h53.01.894,test1,2020.2.5,MacIntel,60,,,0,81,81,81,1
,,,,z,0.974,,,,,,flowers/images/187.jpg,flowers/images/253.jpg,83,Kristina,001,2020-11-20_14h53.01.894,test1,2020.2.5,MacIntel,60,,,0,82,82,82,1
,,,,z,1.999,,,,,,flowers/images/232.jpg,flowers/images/141.jpg,84,Kristina,001,2020-11-20_14h53.01.894,test1,2020.2.5,MacIntel,60,,,0,83,83,83,1
,,,,m,0.927,,,,,,flowers/images/253.jpg,flowers/images/71.jpg,85,Kristina,001,2020-11-20_14h53.01.894,test1,2020.2.5,MacIntel,60,,,0,84,84,84,1
,,,,z,0.788,,,,,,flowers/images/332.jpg,flowers/images/322.jpg,86,Kristina,001,2020-11-20_14h53.01.894,test1,2020.2.5,MacIntel,60,,,0,85,85,85,1
,,,,z,1.126,,,,,,flowers/images/103.jpg,flowers/images/182.jpg,87,Kristina,001,2020-11-20_14h53.01.894,test1,2020.2.5,MacIntel,60,,,0,86,86,86,1
,,,,z,1.066,,,,,,flowers/images/271.jpg,flowers/images/103.jpg,88,Kristina,001,2020-11-20_14h53.01.894,test1,2020.2.5,MacIntel,60,,,0,87,87,87,1
,,,,m,0.839,,,,,,flowers/images/63.jpg,flowers/images/227.jpg,89,Kristina,001,2020-11-20_14h53.01.894,test1,2020.2.5,MacIntel,60,,,0,88,88,88,1
,,,,m,1.358,,,,,,flowers/images/382.jpg,flowers/images/359.jpg,90,Kristina,001,2020-11-20_14h53.01.894,test1,2020.2.5,MacIntel,60,,,0,89,89,89,1
,,,,z,0.646,,,,,,flowers/images/252.jpg,flowers/images/87.jpg,91,Kristina,001,2020-11-20_14h53.01.894,test1,2020.2.5,MacIntel,60,,,0,90,90,90,1
,,,,m,1.072,,,,,,flowers/images/101.jpg,flowers/images/196.jpg,92,Kristina,001,2020-11-20_14h53.01.894,test1,2020.2.5,MacIntel,60,,,0,91,91,91,1
,,,,z,1.087,,,,,,flowers/images/104.jpg,flowers/images/270.jpg,93,Kristina,001,2020-11-20_14h53.01.894,test1,2020.2.5,MacIntel,60,,,0,92,92,92,1
,,,,z,0.963,,,,,,flowers/images/270.jpg,flowers/images/108.jpg,94,Kristina,001,2020-11-20_14h53.01.894,test1,2020.2.5,MacIntel,60,,,0,93,93,93,1
,,,,m,0.782,,,,,,flowers/images/0.jpg,flowers/images/143.jpg,95,Kristina,001,2020-11-20_14h53.01.894,test1,2020.2.5,MacIntel,60,,,0,94,94,94,1
,,,,m,0.837,,,,,,flowers/images/348.jpg,flowers/images/276.jpg,96,Kristina,001,2020-11-20_14h53.01.894,test1,2020.2.5,MacIntel,60,,,0,95,95,95,1
,,,,z,1.118,,,,,,flowers/images/251.jpg,flowers/images/55.jpg,97,Kristina,001,2020-11-20_14h53.01.894,test1,2020.2.5,MacIntel,60,,,0,96,96,96,1
,,,,m,0.732,,,,,,flowers/images/119.jpg,flowers/images/43.jpg,98,Kristina,001,2020-11-20_14h53.01.894,test1,2020.2.5,MacIntel,60,,,0,97,97,97,1
,,,,z,0.813,,,,,,flowers/images/158.jpg,flowers/images/46.jpg,99,Kristina,001,2020-11-20_14h53.01.894,test1,2020.2.5,MacIntel,60,,,0,98,98,98,1
,,,,m,0.834,,,,,,flowers/images/297.jpg,flowers/images/205.jpg,100,Kristina,001,2020-11-20_14h53.01.894,test1,2020.2.5,MacIntel,60,,,0,99,99,99,1
,,,,m,0.908,,,,,,flowers/images/25.jpg,flowers/images/54.jpg,101,Kristina,001,2020-11-20_14h53.01.894,test1,2020.2.5,MacIntel,60,,,0,100,100,100,1
,,,,z,1.662,,,,,,flowers/images/67.jpg,flowers/images/331.jpg,102,Kristina,001,2020-11-20_14h53.01.894,test1,2020.2.5,MacIntel,60,,,0,101,101,101,1
,,,,z,0.765,,,,,,flowers/images/366.jpg,flowers/images/372.jpg,103,Kristina,001,2020-11-20_14h53.01.894,test1,2020.2.5,MacIntel,60,,,0,102,102,102,1
,,,,z,1.668,,,,,,flowers/images/4.jpg,flowers/images/220.jpg,104,Kristina,001,2020-11-20_14h53.01.894,test1,2020.2.5,MacIntel,60,,,0,103,103,103,1
,,,,z,1.781,,,,,,flowers/images/90.jpg,flowers/images/148.jpg,105,Kristina,001,2020-11-20_14h53.01.894,test1,2020.2.5,MacIntel,60,,,0,104,104,104,1
,,,,m,0.783,,,,,,flowers/images/198.jpg,flowers/images/380.jpg,106,Kristina,001,2020-11-20_14h53.01.894,test1,2020.2.5,MacIntel,60,,,0,105,105,105,1
,,,,m,0.839,,,,,,flowers/images/375.jpg,flowers/images/362.jpg,107,Kristina,001,2020-11-20_14h53.01.894,test1,2020.2.5,MacIntel,60,,,0,106,106,106,1
,,,,z,1.155,,,,,,flowers/images/372.jpg,flowers/images/98.jpg,108,Kristina,001,2020-11-20_14h53.01.894,test1,2020.2.5,MacIntel,60,,,0,107,107,107,1
,,,,z,0.899,,,,,,flowers/images/364.jpg,flowers/images/12.jpg,109,Kristina,001,2020-11-20_14h53.01.894,test1,2020.2.5,MacIntel,60,,,0,108,108,108,1
,,,,m,1.091,,,,,,flowers/images/176.jpg,flowers/images/316.jpg,110,Kristina,001,2020-11-20_14h53.01.894,test1,2020.2.5,MacIntel,60,,,0,109,109,109,1
,,,,z,0.927,,,,,,flowers/images/48.jpg,flowers/images/75.jpg,111,Kristina,001,2020-11-20_14h53.01.894,test1,2020.2.5,MacIntel,60,,,0,110,110,110,1
,,,,m,1.444,,,,,,flowers/images/188.jpg,flowers/images/8.jpg,112,Kristina,001,2020-11-20_14h53.01.894,test1,2020.2.5,MacIntel,60,,,0,111,111,111,1
,,,,m,1.395,,,,,,flowers/images/288.jpg,flowers/images/251.jpg,113,Kristina,001,2020-11-20_14h53.01.894,test1,2020.2.5,MacIntel,60,,,0,112,112,112,1
,,,,m,1.276,,,,,,flowers/images/349.jpg,flowers/images/282.jpg,114,Kristina,001,2020-11-20_14h53.01.894,test1,2020.2.5,MacIntel,60,,,0,113,113,113,1
,,,,z,0.818,,,,,,flowers/images/135.jpg,flowers/images/172.jpg,115,Kristina,001,2020-11-20_14h53.01.894,test1,2020.2.5,MacIntel,60,,,0,114,114,114,1
,,,,m,1.169,,,,,,flowers/images/283.jpg,flowers/images/139.jpg,116,Kristina,001,2020-11-20_14h53.01.894,test1,2020.2.5,MacIntel,60,,,0,115,115,115,1
,,,,m,0.857,,,,,,flowers/images/301.jpg,flowers/images/102.jpg,117,Kristina,001,2020-11-20_14h53.01.894,test1,2020.2.5,MacIntel,60,,,0,116,116,116,1
,,,,m,1.003,,,,,,flowers/images/164.jpg,flowers/images/392.jpg,118,Kristina,001,2020-11-20_14h53.01.894,test1,2020.2.5,MacIntel,60,,,0,117,117,117,1
,,,,m,0.72,,,,,,flowers/images/385.jpg,flowers/images/244.jpg,119,Kristina,001,2020-11-20_14h53.01.894,test1,2020.2.5,MacIntel,60,,,0,118,118,118,1
,,,,m,0.849,,,,,,flowers/images/137.jpg,flowers/images/104.jpg,120,Kristina,001,2020-11-20_14h53.01.894,test1,2020.2.5,MacIntel,60,,,0,119,119,119,1
,,,,m,1.515,,,,,,flowers/images/23.jpg,flowers/images/157.jpg,121,Kristina,001,2020-11-20_14h53.01.894,test1,2020.2.5,MacIntel,60,,,0,120,120,120,1
,,,,m,0.899,,,,,,flowers/images/310.jpg,flowers/images/238.jpg,122,Kristina,001,2020-11-20_14h53.01.894,test1,2020.2.5,MacIntel,60,,,0,121,121,121,1
,,,,m,0.989,,,,,,flowers/images/215.jpg,flowers/images/222.jpg,123,Kristina,001,2020-11-20_14h53.01.894,test1,2020.2.5,MacIntel,60,,,0,122,122,122,1
,,,,m,1.183,,,,,,flowers/images/244.jpg,flowers/images/274.jpg,124,Kristina,001,2020-11-20_14h53.01.894,test1,2020.2.5,MacIntel,60,,,0,123,123,123,1
,,,,z,0.707,,,,,,flowers/images/313.jpg,flowers/images/329.jpg,125,Kristina,001,2020-11-20_14h53.01.894,test1,2020.2.5,MacIntel,60,,,0,124,124,124,1
,,,,m,1.283,,,,,,flowers/images/207.jpg,flowers/images/188.jpg,126,Kristina,001,2020-11-20_14h53.01.894,test1,2020.2.5,MacIntel,60,,,0,125,125,125,1
,,,,m,0.829,,,,,,flowers/images/265.jpg,flowers/images/351.jpg,127,Kristina,001,2020-11-20_14h53.01.894,test1,2020.2.5,MacIntel,60,,,0,126,126,126,1
,,,,z,0.9,,,,,,flowers/images/248.jpg,flowers/images/239.jpg,128,Kristina,001,2020-11-20_14h53.01.894,test1,2020.2.5,MacIntel,60,,,0,127,127,127,1
,,,,z,1.087,,,,,,flowers/images/204.jpg,flowers/images/225.jpg,129,Kristina,001,2020-11-20_14h53.01.894,test1,2020.2.5,MacIntel,60,,,0,128,128,128,1
,,,,z,1.784,,,,,,flowers/images/13.jpg,flowers/images/119.jpg,130,Kristina,001,2020-11-20_14h53.01.894,test1,2020.2.5,MacIntel,60,,,0,129,129,129,1
,,,,m,1.001,,,,,,flowers/images/370.jpg,flowers/images/39.jpg,131,Kristina,001,2020-11-20_14h53.01.894,test1,2020.2.5,MacIntel,60,,,0,130,130,130,1
,,,,z,0.964,,,,,,flowers/images/397.jpg,flowers/images/69.jpg,132,Kristina,001,2020-11-20_14h53.01.894,test1,2020.2.5,MacIntel,60,,,0,131,131,131,1
,,,,m,0.746,,,,,,flowers/images/393.jpg,flowers/images/399.jpg,133,Kristina,001,2020-11-20_14h53.01.894,test1,2020.2.5,MacIntel,60,,,0,132,132,132,1
,,,,z,1.265,,,,,,flowers/images/363.jpg,flowers/images/74.jpg,134,Kristina,001,2020-11-20_14h53.01.894,test1,2020.2.5,MacIntel,60,,,0,133,133,133,1
,,,,z,0.91,,,,,,flowers/images/254.jpg,flowers/images/174.jpg,135,Kristina,001,2020-11-20_14h53.01.894,test1,2020.2.5,MacIntel,60,,,0,134,134,134,1
,,,,m,1.05,,,,,,flowers/images/139.jpg,flowers/images/70.jpg,136,Kristina,001,2020-11-20_14h53.01.894,test1,2020.2.5,MacIntel,60,,,0,135,135,135,1
,,,,m,0.74,,,,,,flowers/images/95.jpg,flowers/images/315.jpg,137,Kristina,001,2020-11-20_14h53.01.894,test1,2020.2.5,MacIntel,60,,,0,136,136,136,1
,,,,m,1.007,,,,,,flowers/images/294.jpg,flowers/images/334.jpg,138,Kristina,001,2020-11-20_14h53.01.894,test1,2020.2.5,MacIntel,60,,,0,137,137,137,1
,,,,z,1.35,,,,,,flowers/images/174.jpg,flowers/images/171.jpg,139,Kristina,001,2020-11-20_14h53.01.894,test1,2020.2.5,MacIntel,60,,,0,138,138,138,1
,,,,m,1.106,,,,,,flowers/images/57.jpg,flowers/images/326.jpg,140,Kristina,001,2020-11-20_14h53.01.894,test1,2020.2.5,MacIntel,60,,,0,139,139,139,1
,,,,m,0.828,,,,,,flowers/images/246.jpg,flowers/images/82.jpg,141,Kristina,001,2020-11-20_14h53.01.894,test1,2020.2.5,MacIntel,60,,,0,140,140,140,1
,,,,m,1.309,,,,,,flowers/images/16.jpg,flowers/images/45.jpg,142,Kristina,001,2020-11-20_14h53.01.894,test1,2020.2.5,MacIntel,60,,,0,141,141,141,1
,,,,m,0.677,,,,,,flowers/images/380.jpg,flowers/images/150.jpg,143,Kristina,001,2020-11-20_14h53.01.894,test1,2020.2.5,MacIntel,60,,,0,142,142,142,1
,,,,m,1.291,,,,,,flowers/images/109.jpg,flowers/images/350.jpg,144,Kristina,001,2020-11-20_14h53.01.894,test1,2020.2.5,MacIntel,60,,,0,143,143,143,1
,,,,m,1.056,,,,,,flowers/images/223.jpg,flowers/images/366.jpg,145,Kristina,001,2020-11-20_14h53.01.894,test1,2020.2.5,MacIntel,60,,,0,144,144,144,1
,,,,z,1.064,,,,,,flowers/images/60.jpg,flowers/images/194.jpg,146,Kristina,001,2020-11-20_14h53.01.894,test1,2020.2.5,MacIntel,60,,,0,145,145,145,1
,,,,m,1.123,,,,,,flowers/images/268.jpg,flowers/images/332.jpg,147,Kristina,001,2020-11-20_14h53.01.894,test1,2020.2.5,MacIntel,60,,,0,146,146,146,1
,,,,z,1.061,,,,,,flowers/images/388.jpg,flowers/images/319.jpg,148,Kristina,001,2020-11-20_14h53.01.894,test1,2020.2.5,MacIntel,60,,,0,147,147,147,1
,,,,m,0.827,,,,,,flowers/images/356.jpg,flowers/images/337.jpg,149,Kristina,001,2020-11-20_14h53.01.894,test1,2020.2.5,MacIntel,60,,,0,148,148,148,1
,,,,m,1.308,,,,,,flowers/images/384.jpg,flowers/images/344.jpg,150,Kristina,001,2020-11-20_14h53.01.894,test1,2020.2.5,MacIntel,60,,,0,149,149,149,1
,,,,m,1.433,,,,,,flowers/images/333.jpg,flowers/images/346.jpg,151,Kristina,001,2020-11-20_14h53.01.894,test1,2020.2.5,MacIntel,60,,,0,150,150,150,1
,,,,m,1.434,,,,,,flowers/images/24.jpg,flowers/images/116.jpg,152,Kristina,001,2020-11-20_14h53.01.894,test1,2020.2.5,MacIntel,60,,,0,151,151,151,1
,,,,m,1.099,,,,,,flowers/images/220.jpg,flowers/images/235.jpg,153,Kristina,001,2020-11-20_14h53.01.894,test1,2020.2.5,MacIntel,60,,,0,152,152,152,1
,,,,z,2.198,,,,,,flowers/images/269.jpg,flowers/images/198.jpg,154,Kristina,001,2020-11-20_14h53.01.894,test1,2020.2.5,MacIntel,60,,,0,153,153,153,1
,,,,z,1.344,,,,,,flowers/images/107.jpg,flowers/images/1.jpg,155,Kristina,001,2020-11-20_14h53.01.894,test1,2020.2.5,MacIntel,60,,,0,154,154,154,1
,,,,z,0.855,,,,,,flowers/images/314.jpg,flowers/images/147.jpg,156,Kristina,001,2020-11-20_14h53.01.894,test1,2020.2.5,MacIntel,60,,,0,155,155,155,1
,,,,m,1.165,,,,,,flowers/images/117.jpg,flowers/images/258.jpg,157,Kristina,001,2020-11-20_14h53.01.894,test1,2020.2.5,MacIntel,60,,,0,156,156,156,1
,,,,z,0.912,,,,,,flowers/images/41.jpg,flowers/images/214.jpg,158,Kristina,001,2020-11-20_14h53.01.894,test1,2020.2.5,MacIntel,60,,,0,157,157,157,1
,,,,z,1.037,,,,,,flowers/images/306.jpg,flowers/images/118.jpg,159,Kristina,001,2020-11-20_14h53.01.894,test1,2020.2.5,MacIntel,60,,,0,158,158,158,1
,,,,z,1.732,,,,,,flowers/images/299.jpg,flowers/images/40.jpg,160,Kristina,001,2020-11-20_14h53.01.894,test1,2020.2.5,MacIntel,60,,,0,159,159,159,1
,,,,m,0.947,,,,,,flowers/images/50.jpg,flowers/images/291.jpg,161,Kristina,001,2020-11-20_14h53.01.894,test1,2020.2.5,MacIntel,60,,,0,160,160,160,1
,,,,z,0.949,,,,,,flowers/images/238.jpg,flowers/images/129.jpg,162,Kristina,001,2020-11-20_14h53.01.894,test1,2020.2.5,MacIntel,60,,,0,161,161,161,1
,,,,z,1.333,,,,,,flowers/images/30.jpg,flowers/images/136.jpg,163,Kristina,001,2020-11-20_14h53.01.894,test1,2020.2.5,MacIntel,60,,,0,162,162,162,1
,,,,m,1.172,,,,,,flowers/images/211.jpg,flowers/images/306.jpg,164,Kristina,001,2020-11-20_14h53.01.894,test1,2020.2.5,MacIntel,60,,,0,163,163,163,1
,,,,z,1.537,,,,,,flowers/images/227.jpg,flowers/images/57.jpg,165,Kristina,001,2020-11-20_14h53.01.894,test1,2020.2.5,MacIntel,60,,,0,164,164,164,1
,,,,z,1.497,,,,,,flowers/images/242.jpg,flowers/images/61.jpg,166,Kristina,001,2020-11-20_14h53.01.894,test1,2020.2.5,MacIntel,60,,,0,165,165,165,1
,,,,z,0.692,,,,,,flowers/images/387.jpg,flowers/images/263.jpg,167,Kristina,001,2020-11-20_14h53.01.894,test1,2020.2.5,MacIntel,60,,,0,166,166,166,1
,,,,m,1.197,,,,,,flowers/images/193.jpg,flowers/images/367.jpg,168,Kristina,001,2020-11-20_14h53.01.894,test1,2020.2.5,MacIntel,60,,,0,167,167,167,1
,,,,m,1.184,,,,,,flowers/images/231.jpg,flowers/images/18.jpg,169,Kristina,001,2020-11-20_14h53.01.894,test1,2020.2.5,MacIntel,60,,,0,168,168,168,1
,,,,z,0.954,,,,,,flowers/images/154.jpg,flowers/images/32.jpg,170,Kristina,001,2020-11-20_14h53.01.894,test1,2020.2.5,MacIntel,60,,,0,169,169,169,1
,,,,z,1.978,,,,,,flowers/images/79.jpg,flowers/images/301.jpg,171,Kristina,001,2020-11-20_14h53.01.894,test1,2020.2.5,MacIntel,60,,,0,170,170,170,1
,,,,z,1.768,,,,,,flowers/images/263.jpg,flowers/images/210.jpg,172,Kristina,001,2020-11-20_14h53.01.894,test1,2020.2.5,MacIntel,60,,,0,171,171,171,1
,,,,m,1.198,,,,,,flowers/images/383.jpg,flowers/images/354.jpg,173,Kristina,001,2020-11-20_14h53.01.894,test1,2020.2.5,MacIntel,60,,,0,172,172,172,1
,,,,z,3.092,,,,,,flowers/images/290.jpg,flowers/images/212.jpg,174,Kristina,001,2020-11-20_14h53.01.894,test1,2020.2.5,MacIntel,60,,,0,173,173,173,1
,,,,m,0.967,,,,,,flowers/images/206.jpg,flowers/images/397.jpg,175,Kristina,001,2020-11-20_14h53.01.894,test1,2020.2.5,MacIntel,60,,,0,174,174,174,1
,,,,z,1.307,,,,,,flowers/images/317.jpg,flowers/images/297.jpg,176,Kristina,001,2020-11-20_14h53.01.894,test1,2020.2.5,MacIntel,60,,,0,175,175,175,1
,,,,m,0.952,,,,,,flowers/images/329.jpg,flowers/images/255.jpg,177,Kristina,001,2020-11-20_14h53.01.894,test1,2020.2.5,MacIntel,60,,,0,176,176,176,1
,,,,m,1.944,,,,,,flowers/images/225.jpg,flowers/images/91.jpg,178,Kristina,001,2020-11-20_14h53.01.894,test1,2020.2.5,MacIntel,60,,,0,177,177,177,1
,,,,z,1.156,,,,,,flowers/images/11.jpg,flowers/images/256.jpg,179,Kristina,001,2020-11-20_14h53.01.894,test1,2020.2.5,MacIntel,60,,,0,178,178,178,1
,,,,z,1.19,,,,,,flowers/images/234.jpg,flowers/images/64.jpg,180,Kristina,001,2020-11-20_14h53.01.894,test1,2020.2.5,MacIntel,60,,,0,179,179,179,1
,,,,z,0.756,,,,,,flowers/images/342.jpg,flowers/images/26.jpg,181,Kristina,001,2020-11-20_14h53.01.894,test1,2020.2.5,MacIntel,60,,,0,180,180,180,1
,,,,m,0.928,,,,,,flowers/images/391.jpg,flowers/images/286.jpg,182,Kristina,001,2020-11-20_14h53.01.894,test1,2020.2.5,MacIntel,60,,,0,181,181,181,1
,,,,m,1.092,,,,,,flowers/images/221.jpg,flowers/images/268.jpg,183,Kristina,001,2020-11-20_14h53.01.894,test1,2020.2.5,MacIntel,60,,,0,182,182,182,1
,,,,z,2.297,,,,,,flowers/images/210.jpg,flowers/images/84.jpg,184,Kristina,001,2020-11-20_14h53.01.894,test1,2020.2.5,MacIntel,60,,,0,183,183,183,1
,,,,m,1.075,,,,,,flowers/images/138.jpg,flowers/images/77.jpg,185,Kristina,001,2020-11-20_14h53.01.894,test1,2020.2.5,MacIntel,60,,,0,184,184,184,1
,,,,z,1.306,,,,,,flowers/images/315.jpg,flowers/images/269.jpg,186,Kristina,001,2020-11-20_14h53.01.894,test1,2020.2.5,MacIntel,60,,,0,185,185,185,1
,,,,m,1.074,,,,,,flowers/images/308.jpg,flowers/images/265.jpg,187,Kristina,001,2020-11-20_14h53.01.894,test1,2020.2.5,MacIntel,60,,,0,186,186,186,1
,,,,z,1.689,,,,,,flowers/images/88.jpg,flowers/images/56.jpg,188,Kristina,001,2020-11-20_14h53.01.894,test1,2020.2.5,MacIntel,60,,,0,187,187,187,1
,,,,z,1.625,,,,,,flowers/images/102.jpg,flowers/images/126.jpg,189,Kristina,001,2020-11-20_14h53.01.894,test1,2020.2.5,MacIntel,60,,,0,188,188,188,1
,,,,m,1.027,,,,,,flowers/images/132.jpg,flowers/images/389.jpg,190,Kristina,001,2020-11-20_14h53.01.894,test1,2020.2.5,MacIntel,60,,,0,189,189,189,1
,,,,z,1.342,,,,,,flowers/images/186.jpg,flowers/images/144.jpg,191,Kristina,001,2020-11-20_14h53.01.894,test1,2020.2.5,MacIntel,60,,,0,190,190,190,1
,,,,m,1.229,,,,,,flowers/images/284.jpg,flowers/images/92.jpg,192,Kristina,001,2020-11-20_14h53.01.894,test1,2020.2.5,MacIntel,60,,,0,191,191,191,1
,,,,z,1.329,,,,,,flowers/images/396.jpg,flowers/images/24.jpg,193,Kristina,001,2020-11-20_14h53.01.894,test1,2020.2.5,MacIntel,60,,,0,192,192,192,1
,,,,m,0.994,,,,,,flowers/images/374.jpg,flowers/images/287.jpg,194,Kristina,001,2020-11-20_14h53.01.894,test1,2020.2.5,MacIntel,60,,,0,193,193,193,1
,,,,m,1.059,,,,,,flowers/images/140.jpg,flowers/images/267.jpg,195,Kristina,001,2020-11-20_14h53.01.894,test1,2020.2.5,MacIntel,60,,,0,194,194,194,1
,,,,m,2.688,,,,,,flowers/images/267.jpg,flowers/images/343.jpg,196,Kristina,001,2020-11-20_14h53.01.894,test1,2020.2.5,MacIntel,60,,,0,195,195,195,1
,,,,m,1.616,,,,,,flowers/images/286.jpg,flowers/images/35.jpg,197,Kristina,001,2020-11-20_14h53.01.894,test1,2020.2.5,MacIntel,60,,,0,196,196,196,1
,,,,m,1.307,,,,,,flowers/images/143.jpg,flowers/images/391.jpg,198,Kristina,001,2020-11-20_14h53.01.894,test1,2020.2.5,MacIntel,60,,,0,197,197,197,1
,,,,m,1.091,,,,,,flowers/images/196.jpg,flowers/images/155.jpg,199,Kristina,001,2020-11-20_14h53.01.894,test1,2020.2.5,MacIntel,60,,,0,198,198,198,1
,,,,z,1.052,,,,,,flowers/images/281.jpg,flowers/images/394.jpg,200,Kristina,001,2020-11-20_14h53.01.894,test1,2020.2.5,MacIntel,60,,,0,199,199,199,1
