key_resp.keys,key_resp.rt,key_resp_3.keys,key_resp_3.rt,key_resp_2.keys,key_resp_2.rt,trials.thisRepN,trials.thisTrialN,trials.thisN,trials.thisIndex,trials.ran,image_left,image_right,trial_num,participant,session,date,expName,psychopyVersion,OS,frameRate,key_resp_4.keys,key_resp_4.rt,trials_2.thisRepN,trials_2.thisTrialN,trials_2.thisN,trials_2.thisIndex,trials_2.ran
space,15.4527,space,24.88605,z,5.49839,0,0,0,0,1,flowers/images/125.jpg,flowers/images/165.jpg,1,Maggie ,001,2020-11-20_17h25.47.599,test1,2020.2.5,MacIntel,60,,,,,,,
,,,,z,5.201365,0,1,1,1,1,flowers/images/168.jpg,flowers/images/195.jpg,2,Maggie ,001,2020-11-20_17h25.47.599,test1,2020.2.5,MacIntel,60,,,,,,,
,,,,m,4.83403,0,2,2,2,1,flowers/images/114.jpg,flowers/images/131.jpg,3,Maggie ,001,2020-11-20_17h25.47.599,test1,2020.2.5,MacIntel,60,,,,,,,
,,,,m,13.587265,0,3,3,3,1,flowers/images/110.jpg,flowers/images/241.jpg,4,Maggie ,001,2020-11-20_17h25.47.599,test1,2020.2.5,MacIntel,60,,,,,,,
,,,,z,1.970165,0,4,4,4,1,flowers/images/157.jpg,flowers/images/170.jpg,5,Maggie ,001,2020-11-20_17h25.47.599,test1,2020.2.5,MacIntel,60,,,,,,,
,,,,m,1.75114,0,5,5,5,1,flowers/images/291.jpg,flowers/images/302.jpg,6,Maggie ,001,2020-11-20_17h25.47.599,test1,2020.2.5,MacIntel,60,,,,,,,
,,,,z,1.134225,0,6,6,6,1,flowers/images/335.jpg,flowers/images/272.jpg,7,Maggie ,001,2020-11-20_17h25.47.599,test1,2020.2.5,MacIntel,60,,,,,,,
,,,,z,2.00106,0,7,7,7,1,flowers/images/122.jpg,flowers/images/72.jpg,8,Maggie ,001,2020-11-20_17h25.47.599,test1,2020.2.5,MacIntel,60,,,,,,,
,,,,m,2.05289,0,8,8,8,1,flowers/images/240.jpg,flowers/images/67.jpg,9,Maggie ,001,2020-11-20_17h25.47.599,test1,2020.2.5,MacIntel,60,,,,,,,
,,,,z,1.665145,0,9,9,9,1,flowers/images/324.jpg,flowers/images/180.jpg,10,Maggie ,001,2020-11-20_17h25.47.599,test1,2020.2.5,MacIntel,60,,,,,,,
,,,,m,2.917365,0,10,10,10,1,flowers/images/148.jpg,flowers/images/275.jpg,11,Maggie ,001,2020-11-20_17h25.47.599,test1,2020.2.5,MacIntel,60,,,,,,,
,,,,m,1.401475,0,11,11,11,1,flowers/images/61.jpg,flowers/images/2.jpg,12,Maggie ,001,2020-11-20_17h25.47.599,test1,2020.2.5,MacIntel,60,,,,,,,
,,,,z,2.885105,0,12,12,12,1,flowers/images/20.jpg,flowers/images/378.jpg,13,Maggie ,001,2020-11-20_17h25.47.599,test1,2020.2.5,MacIntel,60,,,,,,,
,,,,z,2.317685,0,13,13,13,1,flowers/images/181.jpg,flowers/images/363.jpg,14,Maggie ,001,2020-11-20_17h25.47.599,test1,2020.2.5,MacIntel,60,,,,,,,
,,,,m,1.156055,0,14,14,14,1,flowers/images/87.jpg,flowers/images/187.jpg,15,Maggie ,001,2020-11-20_17h25.47.599,test1,2020.2.5,MacIntel,60,,,,,,,
,,,,m,1.63518,0,15,15,15,1,flowers/images/150.jpg,flowers/images/281.jpg,16,Maggie ,001,2020-11-20_17h25.47.599,test1,2020.2.5,MacIntel,60,,,,,,,
,,,,m,1.4503,0,16,16,16,1,flowers/images/112.jpg,flowers/images/176.jpg,17,Maggie ,001,2020-11-20_17h25.47.599,test1,2020.2.5,MacIntel,60,,,,,,,
,,,,m,2.507705,0,17,17,17,1,flowers/images/236.jpg,flowers/images/243.jpg,18,Maggie ,001,2020-11-20_17h25.47.599,test1,2020.2.5,MacIntel,60,,,,,,,
,,,,z,1.267425,0,18,18,18,1,flowers/images/133.jpg,flowers/images/247.jpg,19,Maggie ,001,2020-11-20_17h25.47.599,test1,2020.2.5,MacIntel,60,,,,,,,
,,,,z,4.55365,0,19,19,19,1,flowers/images/136.jpg,flowers/images/164.jpg,20,Maggie ,001,2020-11-20_17h25.47.599,test1,2020.2.5,MacIntel,60,,,,,,,
,,,,m,1.02489,0,20,20,20,1,flowers/images/185.jpg,flowers/images/211.jpg,21,Maggie ,001,2020-11-20_17h25.47.599,test1,2020.2.5,MacIntel,60,,,,,,,
,,,,m,0.83476,0,21,21,21,1,flowers/images/118.jpg,flowers/images/371.jpg,22,Maggie ,001,2020-11-20_17h25.47.599,test1,2020.2.5,MacIntel,60,,,,,,,
,,,,m,0.817735,0,22,22,22,1,flowers/images/177.jpg,flowers/images/5.jpg,23,Maggie ,001,2020-11-20_17h25.47.599,test1,2020.2.5,MacIntel,60,,,,,,,
,,,,m,1.63282,0,23,23,23,1,flowers/images/91.jpg,flowers/images/215.jpg,24,Maggie ,001,2020-11-20_17h25.47.599,test1,2020.2.5,MacIntel,60,,,,,,,
,,,,m,0.95132,0,24,24,24,1,flowers/images/277.jpg,flowers/images/11.jpg,25,Maggie ,001,2020-11-20_17h25.47.599,test1,2020.2.5,MacIntel,60,,,,,,,
,,,,m,1.26794,0,25,25,25,1,flowers/images/197.jpg,flowers/images/25.jpg,26,Maggie ,001,2020-11-20_17h25.47.599,test1,2020.2.5,MacIntel,60,,,,,,,
,,,,z,1.5521,0,26,26,26,1,flowers/images/131.jpg,flowers/images/63.jpg,27,Maggie ,001,2020-11-20_17h25.47.599,test1,2020.2.5,MacIntel,60,,,,,,,
,,,,z,3.285335,0,27,27,27,1,flowers/images/106.jpg,flowers/images/221.jpg,28,Maggie ,001,2020-11-20_17h25.47.599,test1,2020.2.5,MacIntel,60,,,,,,,
,,,,m,1.73451,0,28,28,28,1,flowers/images/295.jpg,flowers/images/307.jpg,29,Maggie ,001,2020-11-20_17h25.47.599,test1,2020.2.5,MacIntel,60,,,,,,,
,,,,m,1.38882,0,29,29,29,1,flowers/images/368.jpg,flowers/images/384.jpg,30,Maggie ,001,2020-11-20_17h25.47.599,test1,2020.2.5,MacIntel,60,,,,,,,
,,,,z,1.518135,0,30,30,30,1,flowers/images/96.jpg,flowers/images/140.jpg,31,Maggie ,001,2020-11-20_17h25.47.599,test1,2020.2.5,MacIntel,60,,,,,,,
,,,,m,0.99132,0,31,31,31,1,flowers/images/272.jpg,flowers/images/59.jpg,32,Maggie ,001,2020-11-20_17h25.47.599,test1,2020.2.5,MacIntel,60,,,,,,,
,,,,z,1.112685,0,32,32,32,1,flowers/images/389.jpg,flowers/images/110.jpg,33,Maggie ,001,2020-11-20_17h25.47.599,test1,2020.2.5,MacIntel,60,,,,,,,
,,,,m,1.01819,0,33,33,33,1,flowers/images/237.jpg,flowers/images/387.jpg,34,Maggie ,001,2020-11-20_17h25.47.599,test1,2020.2.5,MacIntel,60,,,,,,,
,,,,z,0.934695,0,34,34,34,1,flowers/images/35.jpg,flowers/images/142.jpg,35,Maggie ,001,2020-11-20_17h25.47.599,test1,2020.2.5,MacIntel,60,,,,,,,
,,,,z,1.28406,0,35,35,35,1,flowers/images/49.jpg,flowers/images/200.jpg,36,Maggie ,001,2020-11-20_17h25.47.599,test1,2020.2.5,MacIntel,60,,,,,,,
,,,,z,1.29355,0,36,36,36,1,flowers/images/142.jpg,flowers/images/328.jpg,37,Maggie ,001,2020-11-20_17h25.47.599,test1,2020.2.5,MacIntel,60,,,,,,,
,,,,m,0.95084,0,37,37,37,1,flowers/images/339.jpg,flowers/images/264.jpg,38,Maggie ,001,2020-11-20_17h25.47.599,test1,2020.2.5,MacIntel,60,,,,,,,
,,,,m,0.951235,0,38,38,38,1,flowers/images/394.jpg,flowers/images/266.jpg,39,Maggie ,001,2020-11-20_17h25.47.599,test1,2020.2.5,MacIntel,60,,,,,,,
,,,,m,0.77044,0,39,39,39,1,flowers/images/89.jpg,flowers/images/298.jpg,40,Maggie ,001,2020-11-20_17h25.47.599,test1,2020.2.5,MacIntel,60,,,,,,,
,,,,z,1.017515,0,40,40,40,1,flowers/images/325.jpg,flowers/images/47.jpg,41,Maggie ,001,2020-11-20_17h25.47.599,test1,2020.2.5,MacIntel,60,,,,,,,
,,,,m,0.901635,0,41,41,41,1,flowers/images/40.jpg,flowers/images/162.jpg,42,Maggie ,001,2020-11-20_17h25.47.599,test1,2020.2.5,MacIntel,60,,,,,,,
,,,,m,1.70273,0,42,42,42,1,flowers/images/266.jpg,flowers/images/181.jpg,43,Maggie ,001,2020-11-20_17h25.47.599,test1,2020.2.5,MacIntel,60,,,,,,,
,,,,z,1.69826,0,43,43,43,1,flowers/images/100.jpg,flowers/images/396.jpg,44,Maggie ,001,2020-11-20_17h25.47.599,test1,2020.2.5,MacIntel,60,,,,,,,
,,,,z,2.39922,0,44,44,44,1,flowers/images/144.jpg,flowers/images/231.jpg,45,Maggie ,001,2020-11-20_17h25.47.599,test1,2020.2.5,MacIntel,60,,,,,,,
,,,,z,1.71571,0,45,45,45,1,flowers/images/289.jpg,flowers/images/202.jpg,46,Maggie ,001,2020-11-20_17h25.47.599,test1,2020.2.5,MacIntel,60,,,,,,,
,,,,m,1.468075,0,46,46,46,1,flowers/images/178.jpg,flowers/images/86.jpg,47,Maggie ,001,2020-11-20_17h25.47.599,test1,2020.2.5,MacIntel,60,,,,,,,
,,,,z,1.09077,0,47,47,47,1,flowers/images/360.jpg,flowers/images/393.jpg,48,Maggie ,001,2020-11-20_17h25.47.599,test1,2020.2.5,MacIntel,60,,,,,,,
,,,,m,0.93447,0,48,48,48,1,flowers/images/108.jpg,flowers/images/288.jpg,49,Maggie ,001,2020-11-20_17h25.47.599,test1,2020.2.5,MacIntel,60,,,,,,,
,,,,z,2.36961,0,49,49,49,1,flowers/images/165.jpg,flowers/images/154.jpg,50,Maggie ,001,2020-11-20_17h25.47.599,test1,2020.2.5,MacIntel,60,,,,,,,
,,,,z,1.63466,0,50,50,50,1,flowers/images/27.jpg,flowers/images/121.jpg,51,Maggie ,001,2020-11-20_17h25.47.599,test1,2020.2.5,MacIntel,60,,,,,,,
,,,,z,1.025865,0,51,51,51,1,flowers/images/302.jpg,flowers/images/203.jpg,52,Maggie ,001,2020-11-20_17h25.47.599,test1,2020.2.5,MacIntel,60,,,,,,,
,,,,z,1.5503,0,52,52,52,1,flowers/images/255.jpg,flowers/images/42.jpg,53,Maggie ,001,2020-11-20_17h25.47.599,test1,2020.2.5,MacIntel,60,,,,,,,
,,,,z,1.097775,0,53,53,53,1,flowers/images/31.jpg,flowers/images/289.jpg,54,Maggie ,001,2020-11-20_17h25.47.599,test1,2020.2.5,MacIntel,60,,,,,,,
,,,,m,1.001155,0,54,54,54,1,flowers/images/66.jpg,flowers/images/246.jpg,55,Maggie ,001,2020-11-20_17h25.47.599,test1,2020.2.5,MacIntel,60,,,,,,,
,,,,z,1.134545,0,55,55,55,1,flowers/images/355.jpg,flowers/images/115.jpg,56,Maggie ,001,2020-11-20_17h25.47.599,test1,2020.2.5,MacIntel,60,,,,,,,
,,,,m,1.25963,0,56,56,56,1,flowers/images/241.jpg,flowers/images/345.jpg,57,Maggie ,001,2020-11-20_17h25.47.599,test1,2020.2.5,MacIntel,60,,,,,,,
,,,,m,1.56818,0,57,57,57,1,flowers/images/296.jpg,flowers/images/37.jpg,58,Maggie ,001,2020-11-20_17h25.47.599,test1,2020.2.5,MacIntel,60,,,,,,,
,,,,m,0.878465,0,58,58,58,1,flowers/images/235.jpg,flowers/images/373.jpg,59,Maggie ,001,2020-11-20_17h25.47.599,test1,2020.2.5,MacIntel,60,,,,,,,
,,,,z,1.08775,0,59,59,59,1,flowers/images/173.jpg,flowers/images/93.jpg,60,Maggie ,001,2020-11-20_17h25.47.599,test1,2020.2.5,MacIntel,60,,,,,,,
,,,,m,1.101395,0,60,60,60,1,flowers/images/331.jpg,flowers/images/88.jpg,61,Maggie ,001,2020-11-20_17h25.47.599,test1,2020.2.5,MacIntel,60,,,,,,,
,,,,m,1.284645,0,61,61,61,1,flowers/images/134.jpg,flowers/images/127.jpg,62,Maggie ,001,2020-11-20_17h25.47.599,test1,2020.2.5,MacIntel,60,,,,,,,
,,,,z,0.851115,0,62,62,62,1,flowers/images/285.jpg,flowers/images/201.jpg,63,Maggie ,001,2020-11-20_17h25.47.599,test1,2020.2.5,MacIntel,60,,,,,,,
,,,,z,1.06054,0,63,63,63,1,flowers/images/151.jpg,flowers/images/52.jpg,64,Maggie ,001,2020-11-20_17h25.47.599,test1,2020.2.5,MacIntel,60,,,,,,,
,,,,z,0.633935,0,64,64,64,1,flowers/images/208.jpg,flowers/images/186.jpg,65,Maggie ,001,2020-11-20_17h25.47.599,test1,2020.2.5,MacIntel,60,,,,,,,
,,,,z,2.660715,0,65,65,65,1,flowers/images/80.jpg,flowers/images/124.jpg,66,Maggie ,001,2020-11-20_17h25.47.599,test1,2020.2.5,MacIntel,60,,,,,,,
,,,,z,1.16247,0,66,66,66,1,flowers/images/303.jpg,flowers/images/347.jpg,67,Maggie ,001,2020-11-20_17h25.47.599,test1,2020.2.5,MacIntel,60,,,,,,,
,,,,m,2.297985,0,67,67,67,1,flowers/images/6.jpg,flowers/images/262.jpg,68,Maggie ,001,2020-11-20_17h25.47.599,test1,2020.2.5,MacIntel,60,,,,,,,
,,,,z,29.875015,0,68,68,68,1,flowers/images/85.jpg,flowers/images/20.jpg,69,Maggie ,001,2020-11-20_17h25.47.599,test1,2020.2.5,MacIntel,60,,,,,,,
,,,,z,1.81813,0,69,69,69,1,flowers/images/392.jpg,flowers/images/15.jpg,70,Maggie ,001,2020-11-20_17h25.47.599,test1,2020.2.5,MacIntel,60,,,,,,,
,,,,z,0.815715,0,70,70,70,1,flowers/images/341.jpg,flowers/images/357.jpg,71,Maggie ,001,2020-11-20_17h25.47.599,test1,2020.2.5,MacIntel,60,,,,,,,
,,,,z,0.787705,0,71,71,71,1,flowers/images/293.jpg,flowers/images/158.jpg,72,Maggie ,001,2020-11-20_17h25.47.599,test1,2020.2.5,MacIntel,60,,,,,,,
,,,,z,0.83547,0,72,72,72,1,flowers/images/390.jpg,flowers/images/58.jpg,73,Maggie ,001,2020-11-20_17h25.47.599,test1,2020.2.5,MacIntel,60,,,,,,,
,,,,z,1.833455,0,73,73,73,1,flowers/images/82.jpg,flowers/images/16.jpg,74,Maggie ,001,2020-11-20_17h25.47.599,test1,2020.2.5,MacIntel,60,,,,,,,
,,,,m,1.482485,0,74,74,74,1,flowers/images/336.jpg,flowers/images/130.jpg,75,Maggie ,001,2020-11-20_17h25.47.599,test1,2020.2.5,MacIntel,60,,,,,,,
,,,,m,0.67922,0,75,75,75,1,flowers/images/160.jpg,flowers/images/105.jpg,76,Maggie ,001,2020-11-20_17h25.47.599,test1,2020.2.5,MacIntel,60,,,,,,,
,,,,m,0.76634,0,76,76,76,1,flowers/images/328.jpg,flowers/images/305.jpg,77,Maggie ,001,2020-11-20_17h25.47.599,test1,2020.2.5,MacIntel,60,,,,,,,
,,,,m,0.7201,0,77,77,77,1,flowers/images/180.jpg,flowers/images/249.jpg,78,Maggie ,001,2020-11-20_17h25.47.599,test1,2020.2.5,MacIntel,60,,,,,,,
,,,,m,1.08914,0,78,78,78,1,flowers/images/169.jpg,flowers/images/94.jpg,79,Maggie ,001,2020-11-20_17h25.47.599,test1,2020.2.5,MacIntel,60,,,,,,,
,,,,m,0.81932,0,79,79,79,1,flowers/images/145.jpg,flowers/images/277.jpg,80,Maggie ,001,2020-11-20_17h25.47.599,test1,2020.2.5,MacIntel,60,,,,,,,
,,,,m,1.223975,0,80,80,80,1,flowers/images/358.jpg,flowers/images/197.jpg,81,Maggie ,001,2020-11-20_17h25.47.599,test1,2020.2.5,MacIntel,60,,,,,,,
,,,,z,1.01627,0,81,81,81,1,flowers/images/71.jpg,flowers/images/128.jpg,82,Maggie ,001,2020-11-20_17h25.47.599,test1,2020.2.5,MacIntel,60,,,,,,,
,,,,m,0.64819,0,82,82,82,1,flowers/images/192.jpg,flowers/images/379.jpg,83,Maggie ,001,2020-11-20_17h25.47.599,test1,2020.2.5,MacIntel,60,,,,,,,
,,,,m,1.300595,0,83,83,83,1,flowers/images/189.jpg,flowers/images/271.jpg,84,Maggie ,001,2020-11-20_17h25.47.599,test1,2020.2.5,MacIntel,60,,,,,,,
,,,,m,1.057045,0,84,84,84,1,flowers/images/15.jpg,flowers/images/28.jpg,85,Maggie ,001,2020-11-20_17h25.47.599,test1,2020.2.5,MacIntel,60,,,,,,,
,,,,m,0.71783,0,85,85,85,1,flowers/images/171.jpg,flowers/images/97.jpg,86,Maggie ,001,2020-11-20_17h25.47.599,test1,2020.2.5,MacIntel,60,,,,,,,
,,,,m,0.61348,0,86,86,86,1,flowers/images/287.jpg,flowers/images/29.jpg,87,Maggie ,001,2020-11-20_17h25.47.599,test1,2020.2.5,MacIntel,60,,,,,,,
,,,,z,0.56776,0,87,87,87,1,flowers/images/381.jpg,flowers/images/356.jpg,88,Maggie ,001,2020-11-20_17h25.47.599,test1,2020.2.5,MacIntel,60,,,,,,,
,,,,z,0.75081,0,88,88,88,1,flowers/images/76.jpg,flowers/images/10.jpg,89,Maggie ,001,2020-11-20_17h25.47.599,test1,2020.2.5,MacIntel,60,,,,,,,
,,,,z,1.09312,0,89,89,89,1,flowers/images/239.jpg,flowers/images/226.jpg,90,Maggie ,001,2020-11-20_17h25.47.599,test1,2020.2.5,MacIntel,60,,,,,,,
,,,,m,1.39277,0,90,90,90,1,flowers/images/398.jpg,flowers/images/368.jpg,91,Maggie ,001,2020-11-20_17h25.47.599,test1,2020.2.5,MacIntel,60,,,,,,,
,,,,m,0.5901,0,91,91,91,1,flowers/images/21.jpg,flowers/images/53.jpg,92,Maggie ,001,2020-11-20_17h25.47.599,test1,2020.2.5,MacIntel,60,,,,,,,
,,,,z,1.601455,0,92,92,92,1,flowers/images/352.jpg,flowers/images/230.jpg,93,Maggie ,001,2020-11-20_17h25.47.599,test1,2020.2.5,MacIntel,60,,,,,,,
,,,,z,0.5507,0,93,93,93,1,flowers/images/54.jpg,flowers/images/280.jpg,94,Maggie ,001,2020-11-20_17h25.47.599,test1,2020.2.5,MacIntel,60,,,,,,,
,,,,z,0.55094,0,94,94,94,1,flowers/images/259.jpg,flowers/images/184.jpg,95,Maggie ,001,2020-11-20_17h25.47.599,test1,2020.2.5,MacIntel,60,,,,,,,
,,,,m,0.91601,0,95,95,95,1,flowers/images/7.jpg,flowers/images/137.jpg,96,Maggie ,001,2020-11-20_17h25.47.599,test1,2020.2.5,MacIntel,60,,,,,,,
,,,,z,0.55652,0,96,96,96,1,flowers/images/292.jpg,flowers/images/364.jpg,97,Maggie ,001,2020-11-20_17h25.47.599,test1,2020.2.5,MacIntel,60,,,,,,,
,,,,m,0.65503,0,97,97,97,1,flowers/images/84.jpg,flowers/images/245.jpg,98,Maggie ,001,2020-11-20_17h25.47.599,test1,2020.2.5,MacIntel,60,,,,,,,
,,,,z,0.54667,0,98,98,98,1,flowers/images/141.jpg,flowers/images/183.jpg,99,Maggie ,001,2020-11-20_17h25.47.599,test1,2020.2.5,MacIntel,60,,,,,,,
,,,,m,0.54966,0,99,99,99,1,flowers/images/45.jpg,flowers/images/375.jpg,100,Maggie ,001,2020-11-20_17h25.47.599,test1,2020.2.5,MacIntel,60,,,,,,,
,,,,m,0.783075,0,100,100,100,1,flowers/images/111.jpg,flowers/images/395.jpg,101,Maggie ,001,2020-11-20_17h25.47.599,test1,2020.2.5,MacIntel,60,,,,,,,
,,,,m,0.95155,0,101,101,101,1,flowers/images/46.jpg,flowers/images/360.jpg,102,Maggie ,001,2020-11-20_17h25.47.599,test1,2020.2.5,MacIntel,60,,,,,,,
,,,,m,0.58476,0,102,102,102,1,flowers/images/399.jpg,flowers/images/4.jpg,103,Maggie ,001,2020-11-20_17h25.47.599,test1,2020.2.5,MacIntel,60,,,,,,,
,,,,z,0.818025,0,103,103,103,1,flowers/images/250.jpg,flowers/images/113.jpg,104,Maggie ,001,2020-11-20_17h25.47.599,test1,2020.2.5,MacIntel,60,,,,,,,
,,,,m,0.59041,0,104,104,104,1,flowers/images/359.jpg,flowers/images/283.jpg,105,Maggie ,001,2020-11-20_17h25.47.599,test1,2020.2.5,MacIntel,60,,,,,,,
,,,,z,0.751095,0,105,105,105,1,flowers/images/209.jpg,flowers/images/309.jpg,106,Maggie ,001,2020-11-20_17h25.47.599,test1,2020.2.5,MacIntel,60,,,,,,,
,,,,m,0.45504,0,106,106,106,1,flowers/images/219.jpg,flowers/images/285.jpg,107,Maggie ,001,2020-11-20_17h25.47.599,test1,2020.2.5,MacIntel,60,,,,,,,
,,,,z,0.44863,0,107,107,107,1,flowers/images/159.jpg,flowers/images/377.jpg,108,Maggie ,001,2020-11-20_17h25.47.599,test1,2020.2.5,MacIntel,60,,,,,,,
,,,,m,0.386725,0,108,108,108,1,flowers/images/17.jpg,flowers/images/365.jpg,109,Maggie ,001,2020-11-20_17h25.47.599,test1,2020.2.5,MacIntel,60,,,,,,,
,,,,m,0.553435,0,109,109,109,1,flowers/images/247.jpg,flowers/images/14.jpg,110,Maggie ,001,2020-11-20_17h25.47.599,test1,2020.2.5,MacIntel,60,,,,,,,
,,,,z,0.551565,0,110,110,110,1,flowers/images/357.jpg,flowers/images/229.jpg,111,Maggie ,001,2020-11-20_17h25.47.599,test1,2020.2.5,MacIntel,60,,,,,,,
,,,,m,0.357765,0,111,111,111,1,flowers/images/378.jpg,flowers/images/299.jpg,112,Maggie ,001,2020-11-20_17h25.47.599,test1,2020.2.5,MacIntel,60,,,,,,,
,,,,m,0.420815,0,112,112,112,1,flowers/images/191.jpg,flowers/images/304.jpg,113,Maggie ,001,2020-11-20_17h25.47.599,test1,2020.2.5,MacIntel,60,,,,,,,
,,,,z,0.40548,0,113,113,113,1,flowers/images/195.jpg,flowers/images/44.jpg,114,Maggie ,001,2020-11-20_17h25.47.599,test1,2020.2.5,MacIntel,60,,,,,,,
,,,,m,0.334005,0,114,114,114,1,flowers/images/126.jpg,flowers/images/161.jpg,115,Maggie ,001,2020-11-20_17h25.47.599,test1,2020.2.5,MacIntel,60,,,,,,,
,,,,z,0.63308,0,115,115,115,1,flowers/images/340.jpg,flowers/images/178.jpg,116,Maggie ,001,2020-11-20_17h25.47.599,test1,2020.2.5,MacIntel,60,,,,,,,
,,,,m,0.779265,0,116,116,116,1,flowers/images/201.jpg,flowers/images/21.jpg,117,Maggie ,001,2020-11-20_17h25.47.599,test1,2020.2.5,MacIntel,60,,,,,,,
,,,,m,1.181595,0,117,117,117,1,flowers/images/307.jpg,flowers/images/122.jpg,118,Maggie ,001,2020-11-20_17h25.47.599,test1,2020.2.5,MacIntel,60,,,,,,,
,,,,z,0.501695,0,118,118,118,1,flowers/images/194.jpg,flowers/images/23.jpg,119,Maggie ,001,2020-11-20_17h25.47.599,test1,2020.2.5,MacIntel,60,,,,,,,
,,,,m,0.629605,0,119,119,119,1,flowers/images/318.jpg,flowers/images/293.jpg,120,Maggie ,001,2020-11-20_17h25.47.599,test1,2020.2.5,MacIntel,60,,,,,,,
,,,,z,0.55074,0,120,120,120,1,flowers/images/69.jpg,flowers/images/327.jpg,121,Maggie ,001,2020-11-20_17h25.47.599,test1,2020.2.5,MacIntel,60,,,,,,,
,,,,m,0.904645,0,121,121,121,1,flowers/images/98.jpg,flowers/images/208.jpg,122,Maggie ,001,2020-11-20_17h25.47.599,test1,2020.2.5,MacIntel,60,,,,,,,
,,,,m,0.79376,0,122,122,122,1,flowers/images/184.jpg,flowers/images/96.jpg,123,Maggie ,001,2020-11-20_17h25.47.599,test1,2020.2.5,MacIntel,60,,,,,,,
,,,,m,0.787755,0,123,123,123,1,flowers/images/44.jpg,flowers/images/317.jpg,124,Maggie ,001,2020-11-20_17h25.47.599,test1,2020.2.5,MacIntel,60,,,,,,,
,,,,m,1.11135,0,124,124,124,1,flowers/images/222.jpg,flowers/images/9.jpg,125,Maggie ,001,2020-11-20_17h25.47.599,test1,2020.2.5,MacIntel,60,,,,,,,
,,,,m,0.56851,0,125,125,125,1,flowers/images/218.jpg,flowers/images/153.jpg,126,Maggie ,001,2020-11-20_17h25.47.599,test1,2020.2.5,MacIntel,60,,,,,,,
,,,,z,0.824525,0,126,126,126,1,flowers/images/275.jpg,flowers/images/295.jpg,127,Maggie ,001,2020-11-20_17h25.47.599,test1,2020.2.5,MacIntel,60,,,,,,,
,,,,m,0.582905,0,127,127,127,1,flowers/images/172.jpg,flowers/images/34.jpg,128,Maggie ,001,2020-11-20_17h25.47.599,test1,2020.2.5,MacIntel,60,,,,,,,
,,,,z,0.755075,0,128,128,128,1,flowers/images/345.jpg,flowers/images/89.jpg,129,Maggie ,001,2020-11-20_17h25.47.599,test1,2020.2.5,MacIntel,60,,,,,,,
,,,,z,0.62909,0,129,129,129,1,flowers/images/334.jpg,flowers/images/376.jpg,130,Maggie ,001,2020-11-20_17h25.47.599,test1,2020.2.5,MacIntel,60,,,,,,,
,,,,m,0.667745,0,130,130,130,1,flowers/images/93.jpg,flowers/images/6.jpg,131,Maggie ,001,2020-11-20_17h25.47.599,test1,2020.2.5,MacIntel,60,,,,,,,
,,,,z,0.619915,0,131,131,131,1,flowers/images/183.jpg,flowers/images/76.jpg,132,Maggie ,001,2020-11-20_17h25.47.599,test1,2020.2.5,MacIntel,60,,,,,,,
,,,,m,0.31693,0,132,132,132,1,flowers/images/304.jpg,flowers/images/224.jpg,133,Maggie ,001,2020-11-20_17h25.47.599,test1,2020.2.5,MacIntel,60,,,,,,,
,,,,z,0.38477,0,133,133,133,1,flowers/images/330.jpg,flowers/images/81.jpg,134,Maggie ,001,2020-11-20_17h25.47.599,test1,2020.2.5,MacIntel,60,,,,,,,
,,,,m,0.282265,0,134,134,134,1,flowers/images/147.jpg,flowers/images/36.jpg,135,Maggie ,001,2020-11-20_17h25.47.599,test1,2020.2.5,MacIntel,60,,,,,,,
,,,,m,0.781785,0,135,135,135,1,flowers/images/62.jpg,flowers/images/321.jpg,136,Maggie ,001,2020-11-20_17h25.47.599,test1,2020.2.5,MacIntel,60,,,,,,,
,,,,m,0.82943,0,136,136,136,1,flowers/images/367.jpg,flowers/images/311.jpg,137,Maggie ,001,2020-11-20_17h25.47.599,test1,2020.2.5,MacIntel,60,,,,,,,
,,,,m,0.74897,0,137,137,137,1,flowers/images/326.jpg,flowers/images/7.jpg,138,Maggie ,001,2020-11-20_17h25.47.599,test1,2020.2.5,MacIntel,60,,,,,,,
,,,,z,0.425,0,138,138,138,1,flowers/images/28.jpg,flowers/images/382.jpg,139,Maggie ,001,2020-11-20_17h25.47.599,test1,2020.2.5,MacIntel,60,,,,,,,
,,,,m,0.40102,0,139,139,139,1,flowers/images/156.jpg,flowers/images/152.jpg,140,Maggie ,001,2020-11-20_17h25.47.599,test1,2020.2.5,MacIntel,60,,,,,,,
,,,,m,0.57049,0,140,140,140,1,flowers/images/113.jpg,flowers/images/167.jpg,141,Maggie ,001,2020-11-20_17h25.47.599,test1,2020.2.5,MacIntel,60,,,,,,,
,,,,m,0.36767,0,141,141,141,1,flowers/images/155.jpg,flowers/images/342.jpg,142,Maggie ,001,2020-11-20_17h25.47.599,test1,2020.2.5,MacIntel,60,,,,,,,
,,,,z,0.45132,0,142,142,142,1,flowers/images/213.jpg,flowers/images/353.jpg,143,Maggie ,001,2020-11-20_17h25.47.599,test1,2020.2.5,MacIntel,60,,,,,,,
,,,,z,0.43423,0,143,143,143,1,flowers/images/298.jpg,flowers/images/90.jpg,144,Maggie ,001,2020-11-20_17h25.47.599,test1,2020.2.5,MacIntel,60,,,,,,,
,,,,z,0.497205,0,144,144,144,1,flowers/images/217.jpg,flowers/images/240.jpg,145,Maggie ,001,2020-11-20_17h25.47.599,test1,2020.2.5,MacIntel,60,,,,,,,
,,,,m,0.413995,0,145,145,145,1,flowers/images/97.jpg,flowers/images/133.jpg,146,Maggie ,001,2020-11-20_17h25.47.599,test1,2020.2.5,MacIntel,60,,,,,,,
,,,,z,0.478205,0,146,146,146,1,flowers/images/354.jpg,flowers/images/310.jpg,147,Maggie ,001,2020-11-20_17h25.47.599,test1,2020.2.5,MacIntel,60,,,,,,,
,,,,m,0.46957,0,147,147,147,1,flowers/images/377.jpg,flowers/images/273.jpg,148,Maggie ,001,2020-11-20_17h25.47.599,test1,2020.2.5,MacIntel,60,,,,,,,
,,,,m,0.80309,0,148,148,148,1,flowers/images/121.jpg,flowers/images/294.jpg,149,Maggie ,001,2020-11-20_17h25.47.599,test1,2020.2.5,MacIntel,60,,,,,,,
,,,,m,1.1443,0,149,149,149,1,flowers/images/14.jpg,flowers/images/101.jpg,150,Maggie ,001,2020-11-20_17h25.47.599,test1,2020.2.5,MacIntel,60,,,,,,,
,,,,z,0.627735,0,150,150,150,1,flowers/images/321.jpg,flowers/images/51.jpg,151,Maggie ,001,2020-11-20_17h25.47.599,test1,2020.2.5,MacIntel,60,,,,,,,
,,,,z,0.679885,0,151,151,151,1,flowers/images/362.jpg,flowers/images/175.jpg,152,Maggie ,001,2020-11-20_17h25.47.599,test1,2020.2.5,MacIntel,60,,,,,,,
,,,,m,0.58143,0,152,152,152,1,flowers/images/203.jpg,flowers/images/248.jpg,153,Maggie ,001,2020-11-20_17h25.47.599,test1,2020.2.5,MacIntel,60,,,,,,,
,,,,m,1.52852,0,153,153,153,1,flowers/images/12.jpg,flowers/images/300.jpg,154,Maggie ,001,2020-11-20_17h25.47.599,test1,2020.2.5,MacIntel,60,,,,,,,
,,,,m,1.182055,0,154,154,154,1,flowers/images/365.jpg,flowers/images/218.jpg,155,Maggie ,001,2020-11-20_17h25.47.599,test1,2020.2.5,MacIntel,60,,,,,,,
,,,,m,0.682385,0,155,155,155,1,flowers/images/75.jpg,flowers/images/109.jpg,156,Maggie ,001,2020-11-20_17h25.47.599,test1,2020.2.5,MacIntel,60,,,,,,,
,,,,z,0.731955,0,156,156,156,1,flowers/images/127.jpg,flowers/images/333.jpg,157,Maggie ,001,2020-11-20_17h25.47.599,test1,2020.2.5,MacIntel,60,,,,,,,
,,,,m,0.822065,0,157,157,157,1,flowers/images/258.jpg,flowers/images/135.jpg,158,Maggie ,001,2020-11-20_17h25.47.599,test1,2020.2.5,MacIntel,60,,,,,,,
,,,,z,0.822625,0,158,158,158,1,flowers/images/343.jpg,flowers/images/65.jpg,159,Maggie ,001,2020-11-20_17h25.47.599,test1,2020.2.5,MacIntel,60,,,,,,,
,,,,m,0.462455,0,159,159,159,1,flowers/images/58.jpg,flowers/images/138.jpg,160,Maggie ,001,2020-11-20_17h25.47.599,test1,2020.2.5,MacIntel,60,,,,,,,
,,,,z,0.53472,0,160,160,160,1,flowers/images/94.jpg,flowers/images/234.jpg,161,Maggie ,001,2020-11-20_17h25.47.599,test1,2020.2.5,MacIntel,60,,,,,,,
,,,,z,0.824805,0,161,161,161,1,flowers/images/379.jpg,flowers/images/207.jpg,162,Maggie ,001,2020-11-20_17h25.47.599,test1,2020.2.5,MacIntel,60,,,,,,,
,,,,m,0.75146,0,162,162,162,1,flowers/images/128.jpg,flowers/images/79.jpg,163,Maggie ,001,2020-11-20_17h25.47.599,test1,2020.2.5,MacIntel,60,,,,,,,
,,,,z,0.500825,0,163,163,163,1,flowers/images/47.jpg,flowers/images/85.jpg,164,Maggie ,001,2020-11-20_17h25.47.599,test1,2020.2.5,MacIntel,60,,,,,,,
,,,,m,0.549985,0,164,164,164,1,flowers/images/19.jpg,flowers/images/191.jpg,165,Maggie ,001,2020-11-20_17h25.47.599,test1,2020.2.5,MacIntel,60,,,,,,,
,,,,z,0.44506,0,165,165,165,1,flowers/images/32.jpg,flowers/images/259.jpg,166,Maggie ,001,2020-11-20_17h25.47.599,test1,2020.2.5,MacIntel,60,,,,,,,
,,,,z,0.599315,0,166,166,166,1,flowers/images/323.jpg,flowers/images/284.jpg,167,Maggie ,001,2020-11-20_17h25.47.599,test1,2020.2.5,MacIntel,60,,,,,,,
,,,,m,0.519945,0,167,167,167,1,flowers/images/395.jpg,flowers/images/348.jpg,168,Maggie ,001,2020-11-20_17h25.47.599,test1,2020.2.5,MacIntel,60,,,,,,,
,,,,z,0.68765,0,168,168,168,1,flowers/images/279.jpg,flowers/images/370.jpg,169,Maggie ,001,2020-11-20_17h25.47.599,test1,2020.2.5,MacIntel,60,,,,,,,
,,,,z,1.94184,0,169,169,169,1,flowers/images/264.jpg,flowers/images/125.jpg,170,Maggie ,001,2020-11-20_17h25.47.599,test1,2020.2.5,MacIntel,60,,,,,,,
,,,,z,0.71068,0,170,170,170,1,flowers/images/77.jpg,flowers/images/318.jpg,171,Maggie ,001,2020-11-20_17h25.47.599,test1,2020.2.5,MacIntel,60,,,,,,,
,,,,z,0.519865,0,171,171,171,1,flowers/images/376.jpg,flowers/images/242.jpg,172,Maggie ,001,2020-11-20_17h25.47.599,test1,2020.2.5,MacIntel,60,,,,,,,
,,,,z,0.618035,0,172,172,172,1,flowers/images/351.jpg,flowers/images/132.jpg,173,Maggie ,001,2020-11-20_17h25.47.599,test1,2020.2.5,MacIntel,60,,,,,,,
,,,,m,0.7317,0,173,173,173,1,flowers/images/305.jpg,flowers/images/252.jpg,174,Maggie ,001,2020-11-20_17h25.47.599,test1,2020.2.5,MacIntel,60,,,,,,,
,,,,m,0.55038,0,174,174,174,1,flowers/images/29.jpg,flowers/images/217.jpg,175,Maggie ,001,2020-11-20_17h25.47.599,test1,2020.2.5,MacIntel,60,,,,,,,
,,,,z,0.681415,0,175,175,175,1,flowers/images/3.jpg,flowers/images/228.jpg,176,Maggie ,001,2020-11-20_17h25.47.599,test1,2020.2.5,MacIntel,60,,,,,,,
,,,,m,0.782315,0,176,176,176,1,flowers/images/199.jpg,flowers/images/330.jpg,177,Maggie ,001,2020-11-20_17h25.47.599,test1,2020.2.5,MacIntel,60,,,,,,,
,,,,z,1.13207,0,177,177,177,1,flowers/images/274.jpg,flowers/images/179.jpg,178,Maggie ,001,2020-11-20_17h25.47.599,test1,2020.2.5,MacIntel,60,,,,,,,
,,,,m,0.368685,0,178,178,178,1,flowers/images/346.jpg,flowers/images/290.jpg,179,Maggie ,001,2020-11-20_17h25.47.599,test1,2020.2.5,MacIntel,60,,,,,,,
,,,,z,0.48419,0,179,179,179,1,flowers/images/56.jpg,flowers/images/204.jpg,180,Maggie ,001,2020-11-20_17h25.47.599,test1,2020.2.5,MacIntel,60,,,,,,,
,,,,m,0.698305,0,180,180,180,1,flowers/images/179.jpg,flowers/images/114.jpg,181,Maggie ,001,2020-11-20_17h25.47.599,test1,2020.2.5,MacIntel,60,,,,,,,
,,,,z,0.48597,0,181,181,181,1,flowers/images/36.jpg,flowers/images/223.jpg,182,Maggie ,001,2020-11-20_17h25.47.599,test1,2020.2.5,MacIntel,60,,,,,,,
,,,,z,0.435545,0,182,182,182,1,flowers/images/344.jpg,flowers/images/168.jpg,183,Maggie ,001,2020-11-20_17h25.47.599,test1,2020.2.5,MacIntel,60,,,,,,,
,,,,z,0.688625,0,183,183,183,1,flowers/images/153.jpg,flowers/images/22.jpg,184,Maggie ,001,2020-11-20_17h25.47.599,test1,2020.2.5,MacIntel,60,,,,,,,
,,,,m,0.72865,0,184,184,184,1,flowers/images/39.jpg,flowers/images/323.jpg,185,Maggie ,001,2020-11-20_17h25.47.599,test1,2020.2.5,MacIntel,60,,,,,,,
,,,,m,0.533265,0,185,185,185,1,flowers/images/327.jpg,flowers/images/349.jpg,186,Maggie ,001,2020-11-20_17h25.47.599,test1,2020.2.5,MacIntel,60,,,,,,,
,,,,z,0.904375,0,186,186,186,1,flowers/images/81.jpg,flowers/images/30.jpg,187,Maggie ,001,2020-11-20_17h25.47.599,test1,2020.2.5,MacIntel,60,,,,,,,
,,,,m,0.75246,0,187,187,187,1,flowers/images/42.jpg,flowers/images/107.jpg,188,Maggie ,001,2020-11-20_17h25.47.599,test1,2020.2.5,MacIntel,60,,,,,,,
,,,,m,1.06492,0,188,188,188,1,flowers/images/18.jpg,flowers/images/358.jpg,189,Maggie ,001,2020-11-20_17h25.47.599,test1,2020.2.5,MacIntel,60,,,,,,,
,,,,m,0.573215,0,189,189,189,1,flowers/images/200.jpg,flowers/images/385.jpg,190,Maggie ,001,2020-11-20_17h25.47.599,test1,2020.2.5,MacIntel,60,,,,,,,
,,,,m,0.41684,0,190,190,190,1,flowers/images/369.jpg,flowers/images/233.jpg,191,Maggie ,001,2020-11-20_17h25.47.599,test1,2020.2.5,MacIntel,60,,,,,,,
,,,,m,0.57972,0,191,191,191,1,flowers/images/309.jpg,flowers/images/320.jpg,192,Maggie ,001,2020-11-20_17h25.47.599,test1,2020.2.5,MacIntel,60,,,,,,,
,,,,m,0.447455,0,192,192,192,1,flowers/images/64.jpg,flowers/images/303.jpg,193,Maggie ,001,2020-11-20_17h25.47.599,test1,2020.2.5,MacIntel,60,,,,,,,
,,,,m,0.36698,0,193,193,193,1,flowers/images/86.jpg,flowers/images/216.jpg,194,Maggie ,001,2020-11-20_17h25.47.599,test1,2020.2.5,MacIntel,60,,,,,,,
,,,,m,0.454825,0,194,194,194,1,flowers/images/260.jpg,flowers/images/361.jpg,195,Maggie ,001,2020-11-20_17h25.47.599,test1,2020.2.5,MacIntel,60,,,,,,,
,,,,z,0.37467,0,195,195,195,1,flowers/images/9.jpg,flowers/images/173.jpg,196,Maggie ,001,2020-11-20_17h25.47.599,test1,2020.2.5,MacIntel,60,,,,,,,
,,,,m,0.752495,0,196,196,196,1,flowers/images/22.jpg,flowers/images/41.jpg,197,Maggie ,001,2020-11-20_17h25.47.599,test1,2020.2.5,MacIntel,60,,,,,,,
,,,,m,2.00117,0,197,197,197,1,flowers/images/214.jpg,flowers/images/145.jpg,198,Maggie ,001,2020-11-20_17h25.47.599,test1,2020.2.5,MacIntel,60,,,,,,,
,,,,m,0.97153,0,198,198,198,1,flowers/images/72.jpg,flowers/images/308.jpg,199,Maggie ,001,2020-11-20_17h25.47.599,test1,2020.2.5,MacIntel,60,,,,,,,
,,,,z,1.43055,0,199,199,199,1,flowers/images/34.jpg,flowers/images/237.jpg,200,Maggie ,001,2020-11-20_17h25.47.599,test1,2020.2.5,MacIntel,60,,,,,,,
,,,,m,4.066355,,,,,,flowers/images/166.jpg,flowers/images/169.jpg,1,Maggie ,001,2020-11-20_17h25.47.599,test1,2020.2.5,MacIntel,60,space,2.600675,0,0,0,0,1
,,,,m,1.02113,,,,,,flowers/images/161.jpg,flowers/images/68.jpg,2,Maggie ,001,2020-11-20_17h25.47.599,test1,2020.2.5,MacIntel,60,,,0,1,1,1,1
,,,,m,0.684975,,,,,,flowers/images/319.jpg,flowers/images/341.jpg,3,Maggie ,001,2020-11-20_17h25.47.599,test1,2020.2.5,MacIntel,60,,,0,2,2,2,1
,,,,z,1.059805,,,,,,flowers/images/322.jpg,flowers/images/111.jpg,4,Maggie ,001,2020-11-20_17h25.47.599,test1,2020.2.5,MacIntel,60,,,0,3,3,3,1
,,,,m,1.30149,,,,,,flowers/images/2.jpg,flowers/images/95.jpg,5,Maggie ,001,2020-11-20_17h25.47.599,test1,2020.2.5,MacIntel,60,,,0,4,4,4,1
,,,,m,0.88189,,,,,,flowers/images/276.jpg,flowers/images/66.jpg,6,Maggie ,001,2020-11-20_17h25.47.599,test1,2020.2.5,MacIntel,60,,,0,5,5,5,1
,,,,z,1.049885,,,,,,flowers/images/116.jpg,flowers/images/206.jpg,7,Maggie ,001,2020-11-20_17h25.47.599,test1,2020.2.5,MacIntel,60,,,0,6,6,6,1
,,,,m,0.96809,,,,,,flowers/images/282.jpg,flowers/images/314.jpg,8,Maggie ,001,2020-11-20_17h25.47.599,test1,2020.2.5,MacIntel,60,,,0,7,7,7,1
,,,,z,1.00018,,,,,,flowers/images/261.jpg,flowers/images/260.jpg,9,Maggie ,001,2020-11-20_17h25.47.599,test1,2020.2.5,MacIntel,60,,,0,8,8,8,1
,,,,m,0.838305,,,,,,flowers/images/353.jpg,flowers/images/151.jpg,10,Maggie ,001,2020-11-20_17h25.47.599,test1,2020.2.5,MacIntel,60,,,0,9,9,9,1
,,,,z,0.976195,,,,,,flowers/images/216.jpg,flowers/images/156.jpg,11,Maggie ,001,2020-11-20_17h25.47.599,test1,2020.2.5,MacIntel,60,,,0,10,10,10,1
,,,,z,1.142775,,,,,,flowers/images/320.jpg,flowers/images/292.jpg,12,Maggie ,001,2020-11-20_17h25.47.599,test1,2020.2.5,MacIntel,60,,,0,11,11,11,1
,,,,m,1.385925,,,,,,flowers/images/149.jpg,flowers/images/279.jpg,13,Maggie ,001,2020-11-20_17h25.47.599,test1,2020.2.5,MacIntel,60,,,0,12,12,12,1
,,,,m,1.8153,,,,,,flowers/images/163.jpg,flowers/images/219.jpg,14,Maggie ,001,2020-11-20_17h25.47.599,test1,2020.2.5,MacIntel,60,,,0,13,13,13,1
,,,,m,1.047825,,,,,,flowers/images/10.jpg,flowers/images/232.jpg,15,Maggie ,001,2020-11-20_17h25.47.599,test1,2020.2.5,MacIntel,60,,,0,14,14,14,1
,,,,m,0.62957,,,,,,flowers/images/55.jpg,flowers/images/73.jpg,16,Maggie ,001,2020-11-20_17h25.47.599,test1,2020.2.5,MacIntel,60,,,0,15,15,15,1
,,,,m,1.218385,,,,,,flowers/images/123.jpg,flowers/images/189.jpg,17,Maggie ,001,2020-11-20_17h25.47.599,test1,2020.2.5,MacIntel,60,,,0,16,16,16,1
,,,,z,1.661305,,,,,,flowers/images/37.jpg,flowers/images/254.jpg,18,Maggie ,001,2020-11-20_17h25.47.599,test1,2020.2.5,MacIntel,60,,,0,17,17,17,1
,,,,z,0.910175,,,,,,flowers/images/230.jpg,flowers/images/166.jpg,19,Maggie ,001,2020-11-20_17h25.47.599,test1,2020.2.5,MacIntel,60,,,0,18,18,18,1
,,,,z,0.57304,,,,,,flowers/images/338.jpg,flowers/images/33.jpg,20,Maggie ,001,2020-11-20_17h25.47.599,test1,2020.2.5,MacIntel,60,,,0,19,19,19,1
,,,,z,0.69845,,,,,,flowers/images/337.jpg,flowers/images/193.jpg,21,Maggie ,001,2020-11-20_17h25.47.599,test1,2020.2.5,MacIntel,60,,,0,20,20,20,1
,,,,z,0.82611,,,,,,flowers/images/83.jpg,flowers/images/339.jpg,22,Maggie ,001,2020-11-20_17h25.47.599,test1,2020.2.5,MacIntel,60,,,0,21,21,21,1
,,,,m,0.748465,,,,,,flowers/images/190.jpg,flowers/images/99.jpg,23,Maggie ,001,2020-11-20_17h25.47.599,test1,2020.2.5,MacIntel,60,,,0,22,22,22,1
,,,,m,0.627775,,,,,,flowers/images/257.jpg,flowers/images/369.jpg,24,Maggie ,001,2020-11-20_17h25.47.599,test1,2020.2.5,MacIntel,60,,,0,23,23,23,1
,,,,m,1.38461,,,,,,flowers/images/280.jpg,flowers/images/355.jpg,25,Maggie ,001,2020-11-20_17h25.47.599,test1,2020.2.5,MacIntel,60,,,0,24,24,24,1
,,,,m,0.74451,,,,,,flowers/images/105.jpg,flowers/images/338.jpg,26,Maggie ,001,2020-11-20_17h25.47.599,test1,2020.2.5,MacIntel,60,,,0,25,25,25,1
,,,,z,0.72537,,,,,,flowers/images/202.jpg,flowers/images/3.jpg,27,Maggie ,001,2020-11-20_17h25.47.599,test1,2020.2.5,MacIntel,60,,,0,26,26,26,1
,,,,m,1.71547,,,,,,flowers/images/212.jpg,flowers/images/38.jpg,28,Maggie ,001,2020-11-20_17h25.47.599,test1,2020.2.5,MacIntel,60,,,0,27,27,27,1
,,,,m,1.234675,,,,,,flowers/images/152.jpg,flowers/images/0.jpg,29,Maggie ,001,2020-11-20_17h25.47.599,test1,2020.2.5,MacIntel,60,,,0,28,28,28,1
,,,,z,0.80491,,,,,,flowers/images/170.jpg,flowers/images/296.jpg,30,Maggie ,001,2020-11-20_17h25.47.599,test1,2020.2.5,MacIntel,60,,,0,29,29,29,1
,,,,m,0.646915,,,,,,flowers/images/74.jpg,flowers/images/80.jpg,31,Maggie ,001,2020-11-20_17h25.47.599,test1,2020.2.5,MacIntel,60,,,0,30,30,30,1
,,,,m,1.161635,,,,,,flowers/images/226.jpg,flowers/images/117.jpg,32,Maggie ,001,2020-11-20_17h25.47.599,test1,2020.2.5,MacIntel,60,,,0,31,31,31,1
,,,,m,0.62966,,,,,,flowers/images/1.jpg,flowers/images/19.jpg,33,Maggie ,001,2020-11-20_17h25.47.599,test1,2020.2.5,MacIntel,60,,,0,32,32,32,1
,,,,m,0.5868,,,,,,flowers/images/182.jpg,flowers/images/335.jpg,34,Maggie ,001,2020-11-20_17h25.47.599,test1,2020.2.5,MacIntel,60,,,0,33,33,33,1
,,,,z,0.703875,,,,,,flowers/images/245.jpg,flowers/images/62.jpg,35,Maggie ,001,2020-11-20_17h25.47.599,test1,2020.2.5,MacIntel,60,,,0,34,34,34,1
,,,,m,0.5804,,,,,,flowers/images/167.jpg,flowers/images/49.jpg,36,Maggie ,001,2020-11-20_17h25.47.599,test1,2020.2.5,MacIntel,60,,,0,35,35,35,1
,,,,z,0.751495,,,,,,flowers/images/38.jpg,flowers/images/250.jpg,37,Maggie ,001,2020-11-20_17h25.47.599,test1,2020.2.5,MacIntel,60,,,0,36,36,36,1
,,,,z,0.620735,,,,,,flowers/images/124.jpg,flowers/images/324.jpg,38,Maggie ,001,2020-11-20_17h25.47.599,test1,2020.2.5,MacIntel,60,,,0,37,37,37,1
,,,,m,0.621705,,,,,,flowers/images/92.jpg,flowers/images/13.jpg,39,Maggie ,001,2020-11-20_17h25.47.599,test1,2020.2.5,MacIntel,60,,,0,38,38,38,1
,,,,m,1.285395,,,,,,flowers/images/120.jpg,flowers/images/374.jpg,40,Maggie ,001,2020-11-20_17h25.47.599,test1,2020.2.5,MacIntel,60,,,0,39,39,39,1
,,,,m,0.550935,,,,,,flowers/images/350.jpg,flowers/images/100.jpg,41,Maggie ,001,2020-11-20_17h25.47.599,test1,2020.2.5,MacIntel,60,,,0,40,40,40,1
,,,,z,0.68866,,,,,,flowers/images/68.jpg,flowers/images/236.jpg,42,Maggie ,001,2020-11-20_17h25.47.599,test1,2020.2.5,MacIntel,60,,,0,41,41,41,1
,,,,m,0.59216,,,,,,flowers/images/5.jpg,flowers/images/340.jpg,43,Maggie ,001,2020-11-20_17h25.47.599,test1,2020.2.5,MacIntel,60,,,0,42,42,42,1
,,,,m,0.722535,,,,,,flowers/images/99.jpg,flowers/images/313.jpg,44,Maggie ,001,2020-11-20_17h25.47.599,test1,2020.2.5,MacIntel,60,,,0,43,43,43,1
,,,,z,0.758055,,,,,,flowers/images/229.jpg,flowers/images/177.jpg,45,Maggie ,001,2020-11-20_17h25.47.599,test1,2020.2.5,MacIntel,60,,,0,44,44,44,1
,,,,m,0.565615,,,,,,flowers/images/361.jpg,flowers/images/383.jpg,46,Maggie ,001,2020-11-20_17h25.47.599,test1,2020.2.5,MacIntel,60,,,0,45,45,45,1
,,,,z,1.081735,,,,,,flowers/images/129.jpg,flowers/images/398.jpg,47,Maggie ,001,2020-11-20_17h25.47.599,test1,2020.2.5,MacIntel,60,,,0,46,46,46,1
,,,,z,2.234425,,,,,,flowers/images/228.jpg,flowers/images/159.jpg,48,Maggie ,001,2020-11-20_17h25.47.599,test1,2020.2.5,MacIntel,60,,,0,47,47,47,1
,,,,z,0.834965,,,,,,flowers/images/65.jpg,flowers/images/312.jpg,49,Maggie ,001,2020-11-20_17h25.47.599,test1,2020.2.5,MacIntel,60,,,0,48,48,48,1
,,,,z,0.61453,,,,,,flowers/images/73.jpg,flowers/images/163.jpg,50,Maggie ,001,2020-11-20_17h25.47.599,test1,2020.2.5,MacIntel,60,,,0,49,49,49,1
,,,,m,0.603335,,,,,,flowers/images/224.jpg,flowers/images/278.jpg,51,Maggie ,001,2020-11-20_17h25.47.599,test1,2020.2.5,MacIntel,60,,,0,50,50,50,1
,,,,z,0.63874,,,,,,flowers/images/312.jpg,flowers/images/185.jpg,52,Maggie ,001,2020-11-20_17h25.47.599,test1,2020.2.5,MacIntel,60,,,0,51,51,51,1
,,,,m,0.39892,,,,,,flowers/images/256.jpg,flowers/images/112.jpg,53,Maggie ,001,2020-11-20_17h25.47.599,test1,2020.2.5,MacIntel,60,,,0,52,52,52,1
,,,,m,0.499265,,,,,,flowers/images/26.jpg,flowers/images/261.jpg,54,Maggie ,001,2020-11-20_17h25.47.599,test1,2020.2.5,MacIntel,60,,,0,53,53,53,1
,,,,z,0.865675,,,,,,flowers/images/51.jpg,flowers/images/106.jpg,55,Maggie ,001,2020-11-20_17h25.47.599,test1,2020.2.5,MacIntel,60,,,0,54,54,54,1
,,,,z,0.686505,,,,,,flowers/images/371.jpg,flowers/images/160.jpg,56,Maggie ,001,2020-11-20_17h25.47.599,test1,2020.2.5,MacIntel,60,,,0,55,55,55,1
,,,,m,0.56065,,,,,,flowers/images/59.jpg,flowers/images/257.jpg,57,Maggie ,001,2020-11-20_17h25.47.599,test1,2020.2.5,MacIntel,60,,,0,56,56,56,1
,,,,m,1.622075,,,,,,flowers/images/347.jpg,flowers/images/190.jpg,58,Maggie ,001,2020-11-20_17h25.47.599,test1,2020.2.5,MacIntel,60,,,0,57,57,57,1
,,,,m,0.53904,,,,,,flowers/images/8.jpg,flowers/images/209.jpg,59,Maggie ,001,2020-11-20_17h25.47.599,test1,2020.2.5,MacIntel,60,,,0,58,58,58,1
,,,,m,0.670015,,,,,,flowers/images/278.jpg,flowers/images/31.jpg,60,Maggie ,001,2020-11-20_17h25.47.599,test1,2020.2.5,MacIntel,60,,,0,59,59,59,1
,,,,m,0.95856,,,,,,flowers/images/262.jpg,flowers/images/325.jpg,61,Maggie ,001,2020-11-20_17h25.47.599,test1,2020.2.5,MacIntel,60,,,0,60,60,60,1
,,,,m,0.58475,,,,,,flowers/images/273.jpg,flowers/images/83.jpg,62,Maggie ,001,2020-11-20_17h25.47.599,test1,2020.2.5,MacIntel,60,,,0,61,61,61,1
,,,,m,0.507455,,,,,,flowers/images/52.jpg,flowers/images/17.jpg,63,Maggie ,001,2020-11-20_17h25.47.599,test1,2020.2.5,MacIntel,60,,,0,62,62,62,1
,,,,m,0.732765,,,,,,flowers/images/243.jpg,flowers/images/27.jpg,64,Maggie ,001,2020-11-20_17h25.47.599,test1,2020.2.5,MacIntel,60,,,0,63,63,63,1
,,,,m,0.528585,,,,,,flowers/images/175.jpg,flowers/images/192.jpg,65,Maggie ,001,2020-11-20_17h25.47.599,test1,2020.2.5,MacIntel,60,,,0,64,64,64,1
,,,,z,0.74418,,,,,,flowers/images/53.jpg,flowers/images/199.jpg,66,Maggie ,001,2020-11-20_17h25.47.599,test1,2020.2.5,MacIntel,60,,,0,65,65,65,1
,,,,m,0.61778,,,,,,flowers/images/316.jpg,flowers/images/381.jpg,67,Maggie ,001,2020-11-20_17h25.47.599,test1,2020.2.5,MacIntel,60,,,0,66,66,66,1
,,,,z,0.738635,,,,,,flowers/images/249.jpg,flowers/images/213.jpg,68,Maggie ,001,2020-11-20_17h25.47.599,test1,2020.2.5,MacIntel,60,,,0,67,67,67,1
,,,,z,0.566935,,,,,,flowers/images/70.jpg,flowers/images/60.jpg,69,Maggie ,001,2020-11-20_17h25.47.599,test1,2020.2.5,MacIntel,60,,,0,68,68,68,1
,,,,m,0.55425,,,,,,flowers/images/300.jpg,flowers/images/386.jpg,70,Maggie ,001,2020-11-20_17h25.47.599,test1,2020.2.5,MacIntel,60,,,0,69,69,69,1
,,,,z,0.65911,,,,,,flowers/images/162.jpg,flowers/images/149.jpg,71,Maggie ,001,2020-11-20_17h25.47.599,test1,2020.2.5,MacIntel,60,,,0,70,70,70,1
,,,,m,0.43451,,,,,,flowers/images/146.jpg,flowers/images/336.jpg,72,Maggie ,001,2020-11-20_17h25.47.599,test1,2020.2.5,MacIntel,60,,,0,71,71,71,1
,,,,m,0.5103,,,,,,flowers/images/115.jpg,flowers/images/120.jpg,73,Maggie ,001,2020-11-20_17h25.47.599,test1,2020.2.5,MacIntel,60,,,0,72,72,72,1
,,,,m,0.484685,,,,,,flowers/images/311.jpg,flowers/images/123.jpg,74,Maggie ,001,2020-11-20_17h25.47.599,test1,2020.2.5,MacIntel,60,,,0,73,73,73,1
,,,,z,0.479225,,,,,,flowers/images/33.jpg,flowers/images/146.jpg,75,Maggie ,001,2020-11-20_17h25.47.599,test1,2020.2.5,MacIntel,60,,,0,74,74,74,1
,,,,z,0.69672,,,,,,flowers/images/78.jpg,flowers/images/352.jpg,76,Maggie ,001,2020-11-20_17h25.47.599,test1,2020.2.5,MacIntel,60,,,0,75,75,75,1
,,,,z,0.87478,,,,,,flowers/images/43.jpg,flowers/images/50.jpg,77,Maggie ,001,2020-11-20_17h25.47.599,test1,2020.2.5,MacIntel,60,,,0,76,76,76,1
,,,,m,0.5302,,,,,,flowers/images/373.jpg,flowers/images/78.jpg,78,Maggie ,001,2020-11-20_17h25.47.599,test1,2020.2.5,MacIntel,60,,,0,77,77,77,1
,,,,m,0.586725,,,,,,flowers/images/233.jpg,flowers/images/134.jpg,79,Maggie ,001,2020-11-20_17h25.47.599,test1,2020.2.5,MacIntel,60,,,0,78,78,78,1
,,,,z,0.48484,,,,,,flowers/images/386.jpg,flowers/images/390.jpg,80,Maggie ,001,2020-11-20_17h25.47.599,test1,2020.2.5,MacIntel,60,,,0,79,79,79,1
,,,,z,0.515695,,,,,,flowers/images/205.jpg,flowers/images/388.jpg,81,Maggie ,001,2020-11-20_17h25.47.599,test1,2020.2.5,MacIntel,60,,,0,80,80,80,1
,,,,m,0.729315,,,,,,flowers/images/130.jpg,flowers/images/48.jpg,82,Maggie ,001,2020-11-20_17h25.47.599,test1,2020.2.5,MacIntel,60,,,0,81,81,81,1
,,,,z,0.602705,,,,,,flowers/images/187.jpg,flowers/images/253.jpg,83,Maggie ,001,2020-11-20_17h25.47.599,test1,2020.2.5,MacIntel,60,,,0,82,82,82,1
,,,,m,0.56965,,,,,,flowers/images/232.jpg,flowers/images/141.jpg,84,Maggie ,001,2020-11-20_17h25.47.599,test1,2020.2.5,MacIntel,60,,,0,83,83,83,1
,,,,z,0.48481,,,,,,flowers/images/253.jpg,flowers/images/71.jpg,85,Maggie ,001,2020-11-20_17h25.47.599,test1,2020.2.5,MacIntel,60,,,0,84,84,84,1
,,,,m,0.45003,,,,,,flowers/images/332.jpg,flowers/images/322.jpg,86,Maggie ,001,2020-11-20_17h25.47.599,test1,2020.2.5,MacIntel,60,,,0,85,85,85,1
,,,,z,0.52127,,,,,,flowers/images/103.jpg,flowers/images/182.jpg,87,Maggie ,001,2020-11-20_17h25.47.599,test1,2020.2.5,MacIntel,60,,,0,86,86,86,1
,,,,z,0.81002,,,,,,flowers/images/271.jpg,flowers/images/103.jpg,88,Maggie ,001,2020-11-20_17h25.47.599,test1,2020.2.5,MacIntel,60,,,0,87,87,87,1
,,,,m,0.373115,,,,,,flowers/images/63.jpg,flowers/images/227.jpg,89,Maggie ,001,2020-11-20_17h25.47.599,test1,2020.2.5,MacIntel,60,,,0,88,88,88,1
,,,,m,0.570605,,,,,,flowers/images/382.jpg,flowers/images/359.jpg,90,Maggie ,001,2020-11-20_17h25.47.599,test1,2020.2.5,MacIntel,60,,,0,89,89,89,1
,,,,z,0.885645,,,,,,flowers/images/252.jpg,flowers/images/87.jpg,91,Maggie ,001,2020-11-20_17h25.47.599,test1,2020.2.5,MacIntel,60,,,0,90,90,90,1
,,,,m,0.5895,,,,,,flowers/images/101.jpg,flowers/images/196.jpg,92,Maggie ,001,2020-11-20_17h25.47.599,test1,2020.2.5,MacIntel,60,,,0,91,91,91,1
,,,,z,0.65185,,,,,,flowers/images/104.jpg,flowers/images/270.jpg,93,Maggie ,001,2020-11-20_17h25.47.599,test1,2020.2.5,MacIntel,60,,,0,92,92,92,1
,,,,m,0.503195,,,,,,flowers/images/270.jpg,flowers/images/108.jpg,94,Maggie ,001,2020-11-20_17h25.47.599,test1,2020.2.5,MacIntel,60,,,0,93,93,93,1
,,,,m,1.039555,,,,,,flowers/images/0.jpg,flowers/images/143.jpg,95,Maggie ,001,2020-11-20_17h25.47.599,test1,2020.2.5,MacIntel,60,,,0,94,94,94,1
,,,,m,0.7451,,,,,,flowers/images/348.jpg,flowers/images/276.jpg,96,Maggie ,001,2020-11-20_17h25.47.599,test1,2020.2.5,MacIntel,60,,,0,95,95,95,1
,,,,m,0.706525,,,,,,flowers/images/251.jpg,flowers/images/55.jpg,97,Maggie ,001,2020-11-20_17h25.47.599,test1,2020.2.5,MacIntel,60,,,0,96,96,96,1
,,,,m,0.687955,,,,,,flowers/images/119.jpg,flowers/images/43.jpg,98,Maggie ,001,2020-11-20_17h25.47.599,test1,2020.2.5,MacIntel,60,,,0,97,97,97,1
,,,,m,0.79127,,,,,,flowers/images/158.jpg,flowers/images/46.jpg,99,Maggie ,001,2020-11-20_17h25.47.599,test1,2020.2.5,MacIntel,60,,,0,98,98,98,1
,,,,m,0.63339,,,,,,flowers/images/297.jpg,flowers/images/205.jpg,100,Maggie ,001,2020-11-20_17h25.47.599,test1,2020.2.5,MacIntel,60,,,0,99,99,99,1
,,,,m,0.762465,,,,,,flowers/images/25.jpg,flowers/images/54.jpg,101,Maggie ,001,2020-11-20_17h25.47.599,test1,2020.2.5,MacIntel,60,,,0,100,100,100,1
,,,,m,0.85834,,,,,,flowers/images/67.jpg,flowers/images/331.jpg,102,Maggie ,001,2020-11-20_17h25.47.599,test1,2020.2.5,MacIntel,60,,,0,101,101,101,1
,,,,m,0.75138,,,,,,flowers/images/366.jpg,flowers/images/372.jpg,103,Maggie ,001,2020-11-20_17h25.47.599,test1,2020.2.5,MacIntel,60,,,0,102,102,102,1
,,,,z,0.630995,,,,,,flowers/images/4.jpg,flowers/images/220.jpg,104,Maggie ,001,2020-11-20_17h25.47.599,test1,2020.2.5,MacIntel,60,,,0,103,103,103,1
,,,,m,0.70074,,,,,,flowers/images/90.jpg,flowers/images/148.jpg,105,Maggie ,001,2020-11-20_17h25.47.599,test1,2020.2.5,MacIntel,60,,,0,104,104,104,1
,,,,m,0.620595,,,,,,flowers/images/198.jpg,flowers/images/380.jpg,106,Maggie ,001,2020-11-20_17h25.47.599,test1,2020.2.5,MacIntel,60,,,0,105,105,105,1
,,,,z,0.860105,,,,,,flowers/images/375.jpg,flowers/images/362.jpg,107,Maggie ,001,2020-11-20_17h25.47.599,test1,2020.2.5,MacIntel,60,,,0,106,106,106,1
,,,,m,0.321265,,,,,,flowers/images/372.jpg,flowers/images/98.jpg,108,Maggie ,001,2020-11-20_17h25.47.599,test1,2020.2.5,MacIntel,60,,,0,107,107,107,1
,,,,m,0.52896,,,,,,flowers/images/364.jpg,flowers/images/12.jpg,109,Maggie ,001,2020-11-20_17h25.47.599,test1,2020.2.5,MacIntel,60,,,0,108,108,108,1
,,,,m,0.569185,,,,,,flowers/images/176.jpg,flowers/images/316.jpg,110,Maggie ,001,2020-11-20_17h25.47.599,test1,2020.2.5,MacIntel,60,,,0,109,109,109,1
,,,,m,0.52485,,,,,,flowers/images/48.jpg,flowers/images/75.jpg,111,Maggie ,001,2020-11-20_17h25.47.599,test1,2020.2.5,MacIntel,60,,,0,110,110,110,1
,,,,z,0.45539,,,,,,flowers/images/188.jpg,flowers/images/8.jpg,112,Maggie ,001,2020-11-20_17h25.47.599,test1,2020.2.5,MacIntel,60,,,0,111,111,111,1
,,,,z,0.46838,,,,,,flowers/images/288.jpg,flowers/images/251.jpg,113,Maggie ,001,2020-11-20_17h25.47.599,test1,2020.2.5,MacIntel,60,,,0,112,112,112,1
,,,,z,0.52865,,,,,,flowers/images/349.jpg,flowers/images/282.jpg,114,Maggie ,001,2020-11-20_17h25.47.599,test1,2020.2.5,MacIntel,60,,,0,113,113,113,1
,,,,z,0.94854,,,,,,flowers/images/135.jpg,flowers/images/172.jpg,115,Maggie ,001,2020-11-20_17h25.47.599,test1,2020.2.5,MacIntel,60,,,0,114,114,114,1
,,,,z,0.66424,,,,,,flowers/images/283.jpg,flowers/images/139.jpg,116,Maggie ,001,2020-11-20_17h25.47.599,test1,2020.2.5,MacIntel,60,,,0,115,115,115,1
,,,,z,0.767625,,,,,,flowers/images/301.jpg,flowers/images/102.jpg,117,Maggie ,001,2020-11-20_17h25.47.599,test1,2020.2.5,MacIntel,60,,,0,116,116,116,1
,,,,m,0.57311,,,,,,flowers/images/164.jpg,flowers/images/392.jpg,118,Maggie ,001,2020-11-20_17h25.47.599,test1,2020.2.5,MacIntel,60,,,0,117,117,117,1
,,,,z,0.57225,,,,,,flowers/images/385.jpg,flowers/images/244.jpg,119,Maggie ,001,2020-11-20_17h25.47.599,test1,2020.2.5,MacIntel,60,,,0,118,118,118,1
,,,,z,0.59228,,,,,,flowers/images/137.jpg,flowers/images/104.jpg,120,Maggie ,001,2020-11-20_17h25.47.599,test1,2020.2.5,MacIntel,60,,,0,119,119,119,1
,,,,m,0.52845,,,,,,flowers/images/23.jpg,flowers/images/157.jpg,121,Maggie ,001,2020-11-20_17h25.47.599,test1,2020.2.5,MacIntel,60,,,0,120,120,120,1
,,,,z,0.42368,,,,,,flowers/images/310.jpg,flowers/images/238.jpg,122,Maggie ,001,2020-11-20_17h25.47.599,test1,2020.2.5,MacIntel,60,,,0,121,121,121,1
,,,,z,0.5749,,,,,,flowers/images/215.jpg,flowers/images/222.jpg,123,Maggie ,001,2020-11-20_17h25.47.599,test1,2020.2.5,MacIntel,60,,,0,122,122,122,1
,,,,m,0.57971,,,,,,flowers/images/244.jpg,flowers/images/274.jpg,124,Maggie ,001,2020-11-20_17h25.47.599,test1,2020.2.5,MacIntel,60,,,0,123,123,123,1
,,,,z,0.592275,,,,,,flowers/images/313.jpg,flowers/images/329.jpg,125,Maggie ,001,2020-11-20_17h25.47.599,test1,2020.2.5,MacIntel,60,,,0,124,124,124,1
,,,,z,0.60164,,,,,,flowers/images/207.jpg,flowers/images/188.jpg,126,Maggie ,001,2020-11-20_17h25.47.599,test1,2020.2.5,MacIntel,60,,,0,125,125,125,1
,,,,z,0.37663,,,,,,flowers/images/265.jpg,flowers/images/351.jpg,127,Maggie ,001,2020-11-20_17h25.47.599,test1,2020.2.5,MacIntel,60,,,0,126,126,126,1
,,,,z,0.613535,,,,,,flowers/images/248.jpg,flowers/images/239.jpg,128,Maggie ,001,2020-11-20_17h25.47.599,test1,2020.2.5,MacIntel,60,,,0,127,127,127,1
,,,,z,0.5512,,,,,,flowers/images/204.jpg,flowers/images/225.jpg,129,Maggie ,001,2020-11-20_17h25.47.599,test1,2020.2.5,MacIntel,60,,,0,128,128,128,1
,,,,z,0.379785,,,,,,flowers/images/13.jpg,flowers/images/119.jpg,130,Maggie ,001,2020-11-20_17h25.47.599,test1,2020.2.5,MacIntel,60,,,0,129,129,129,1
,,,,z,0.54674,,,,,,flowers/images/370.jpg,flowers/images/39.jpg,131,Maggie ,001,2020-11-20_17h25.47.599,test1,2020.2.5,MacIntel,60,,,0,130,130,130,1
,,,,z,0.418045,,,,,,flowers/images/397.jpg,flowers/images/69.jpg,132,Maggie ,001,2020-11-20_17h25.47.599,test1,2020.2.5,MacIntel,60,,,0,131,131,131,1
,,,,z,0.526385,,,,,,flowers/images/393.jpg,flowers/images/399.jpg,133,Maggie ,001,2020-11-20_17h25.47.599,test1,2020.2.5,MacIntel,60,,,0,132,132,132,1
,,,,z,0.430615,,,,,,flowers/images/363.jpg,flowers/images/74.jpg,134,Maggie ,001,2020-11-20_17h25.47.599,test1,2020.2.5,MacIntel,60,,,0,133,133,133,1
,,,,z,0.547895,,,,,,flowers/images/254.jpg,flowers/images/174.jpg,135,Maggie ,001,2020-11-20_17h25.47.599,test1,2020.2.5,MacIntel,60,,,0,134,134,134,1
,,,,m,0.665005,,,,,,flowers/images/139.jpg,flowers/images/70.jpg,136,Maggie ,001,2020-11-20_17h25.47.599,test1,2020.2.5,MacIntel,60,,,0,135,135,135,1
,,,,m,0.73165,,,,,,flowers/images/95.jpg,flowers/images/315.jpg,137,Maggie ,001,2020-11-20_17h25.47.599,test1,2020.2.5,MacIntel,60,,,0,136,136,136,1
,,,,z,0.78141,,,,,,flowers/images/294.jpg,flowers/images/334.jpg,138,Maggie ,001,2020-11-20_17h25.47.599,test1,2020.2.5,MacIntel,60,,,0,137,137,137,1
,,,,z,0.562715,,,,,,flowers/images/174.jpg,flowers/images/171.jpg,139,Maggie ,001,2020-11-20_17h25.47.599,test1,2020.2.5,MacIntel,60,,,0,138,138,138,1
,,,,m,0.381245,,,,,,flowers/images/57.jpg,flowers/images/326.jpg,140,Maggie ,001,2020-11-20_17h25.47.599,test1,2020.2.5,MacIntel,60,,,0,139,139,139,1
,,,,z,0.3848,,,,,,flowers/images/246.jpg,flowers/images/82.jpg,141,Maggie ,001,2020-11-20_17h25.47.599,test1,2020.2.5,MacIntel,60,,,0,140,140,140,1
,,,,z,0.81773,,,,,,flowers/images/16.jpg,flowers/images/45.jpg,142,Maggie ,001,2020-11-20_17h25.47.599,test1,2020.2.5,MacIntel,60,,,0,141,141,141,1
,,,,z,0.536415,,,,,,flowers/images/380.jpg,flowers/images/150.jpg,143,Maggie ,001,2020-11-20_17h25.47.599,test1,2020.2.5,MacIntel,60,,,0,142,142,142,1
,,,,z,0.421975,,,,,,flowers/images/109.jpg,flowers/images/350.jpg,144,Maggie ,001,2020-11-20_17h25.47.599,test1,2020.2.5,MacIntel,60,,,0,143,143,143,1
,,,,z,0.571615,,,,,,flowers/images/223.jpg,flowers/images/366.jpg,145,Maggie ,001,2020-11-20_17h25.47.599,test1,2020.2.5,MacIntel,60,,,0,144,144,144,1
,,,,z,0.510065,,,,,,flowers/images/60.jpg,flowers/images/194.jpg,146,Maggie ,001,2020-11-20_17h25.47.599,test1,2020.2.5,MacIntel,60,,,0,145,145,145,1
,,,,z,0.437695,,,,,,flowers/images/268.jpg,flowers/images/332.jpg,147,Maggie ,001,2020-11-20_17h25.47.599,test1,2020.2.5,MacIntel,60,,,0,146,146,146,1
,,,,z,0.58712,,,,,,flowers/images/388.jpg,flowers/images/319.jpg,148,Maggie ,001,2020-11-20_17h25.47.599,test1,2020.2.5,MacIntel,60,,,0,147,147,147,1
,,,,m,0.535975,,,,,,flowers/images/356.jpg,flowers/images/337.jpg,149,Maggie ,001,2020-11-20_17h25.47.599,test1,2020.2.5,MacIntel,60,,,0,148,148,148,1
,,,,m,0.541545,,,,,,flowers/images/384.jpg,flowers/images/344.jpg,150,Maggie ,001,2020-11-20_17h25.47.599,test1,2020.2.5,MacIntel,60,,,0,149,149,149,1
,,,,m,0.46268,,,,,,flowers/images/333.jpg,flowers/images/346.jpg,151,Maggie ,001,2020-11-20_17h25.47.599,test1,2020.2.5,MacIntel,60,,,0,150,150,150,1
,,,,z,0.48532,,,,,,flowers/images/24.jpg,flowers/images/116.jpg,152,Maggie ,001,2020-11-20_17h25.47.599,test1,2020.2.5,MacIntel,60,,,0,151,151,151,1
,,,,m,0.39923,,,,,,flowers/images/220.jpg,flowers/images/235.jpg,153,Maggie ,001,2020-11-20_17h25.47.599,test1,2020.2.5,MacIntel,60,,,0,152,152,152,1
,,,,m,0.417645,,,,,,flowers/images/269.jpg,flowers/images/198.jpg,154,Maggie ,001,2020-11-20_17h25.47.599,test1,2020.2.5,MacIntel,60,,,0,153,153,153,1
,,,,z,0.61878,,,,,,flowers/images/107.jpg,flowers/images/1.jpg,155,Maggie ,001,2020-11-20_17h25.47.599,test1,2020.2.5,MacIntel,60,,,0,154,154,154,1
,,,,z,0.43042,,,,,,flowers/images/314.jpg,flowers/images/147.jpg,156,Maggie ,001,2020-11-20_17h25.47.599,test1,2020.2.5,MacIntel,60,,,0,155,155,155,1
,,,,z,0.400835,,,,,,flowers/images/117.jpg,flowers/images/258.jpg,157,Maggie ,001,2020-11-20_17h25.47.599,test1,2020.2.5,MacIntel,60,,,0,156,156,156,1
,,,,z,0.448295,,,,,,flowers/images/41.jpg,flowers/images/214.jpg,158,Maggie ,001,2020-11-20_17h25.47.599,test1,2020.2.5,MacIntel,60,,,0,157,157,157,1
,,,,z,0.42088,,,,,,flowers/images/306.jpg,flowers/images/118.jpg,159,Maggie ,001,2020-11-20_17h25.47.599,test1,2020.2.5,MacIntel,60,,,0,158,158,158,1
,,,,z,0.44745,,,,,,flowers/images/299.jpg,flowers/images/40.jpg,160,Maggie ,001,2020-11-20_17h25.47.599,test1,2020.2.5,MacIntel,60,,,0,159,159,159,1
,,,,m,0.448805,,,,,,flowers/images/50.jpg,flowers/images/291.jpg,161,Maggie ,001,2020-11-20_17h25.47.599,test1,2020.2.5,MacIntel,60,,,0,160,160,160,1
,,,,z,0.498115,,,,,,flowers/images/238.jpg,flowers/images/129.jpg,162,Maggie ,001,2020-11-20_17h25.47.599,test1,2020.2.5,MacIntel,60,,,0,161,161,161,1
,,,,z,0.44945,,,,,,flowers/images/30.jpg,flowers/images/136.jpg,163,Maggie ,001,2020-11-20_17h25.47.599,test1,2020.2.5,MacIntel,60,,,0,162,162,162,1
,,,,z,0.43624,,,,,,flowers/images/211.jpg,flowers/images/306.jpg,164,Maggie ,001,2020-11-20_17h25.47.599,test1,2020.2.5,MacIntel,60,,,0,163,163,163,1
,,,,z,0.43392,,,,,,flowers/images/227.jpg,flowers/images/57.jpg,165,Maggie ,001,2020-11-20_17h25.47.599,test1,2020.2.5,MacIntel,60,,,0,164,164,164,1
,,,,z,0.60164,,,,,,flowers/images/242.jpg,flowers/images/61.jpg,166,Maggie ,001,2020-11-20_17h25.47.599,test1,2020.2.5,MacIntel,60,,,0,165,165,165,1
,,,,z,0.44758,,,,,,flowers/images/387.jpg,flowers/images/263.jpg,167,Maggie ,001,2020-11-20_17h25.47.599,test1,2020.2.5,MacIntel,60,,,0,166,166,166,1
,,,,z,0.480235,,,,,,flowers/images/193.jpg,flowers/images/367.jpg,168,Maggie ,001,2020-11-20_17h25.47.599,test1,2020.2.5,MacIntel,60,,,0,167,167,167,1
,,,,m,0.65603,,,,,,flowers/images/231.jpg,flowers/images/18.jpg,169,Maggie ,001,2020-11-20_17h25.47.599,test1,2020.2.5,MacIntel,60,,,0,168,168,168,1
,,,,m,0.690025,,,,,,flowers/images/154.jpg,flowers/images/32.jpg,170,Maggie ,001,2020-11-20_17h25.47.599,test1,2020.2.5,MacIntel,60,,,0,169,169,169,1
,,,,m,0.621475,,,,,,flowers/images/79.jpg,flowers/images/301.jpg,171,Maggie ,001,2020-11-20_17h25.47.599,test1,2020.2.5,MacIntel,60,,,0,170,170,170,1
,,,,z,0.593275,,,,,,flowers/images/263.jpg,flowers/images/210.jpg,172,Maggie ,001,2020-11-20_17h25.47.599,test1,2020.2.5,MacIntel,60,,,0,171,171,171,1
,,,,m,1.97998,,,,,,flowers/images/383.jpg,flowers/images/354.jpg,173,Maggie ,001,2020-11-20_17h25.47.599,test1,2020.2.5,MacIntel,60,,,0,172,172,172,1
,,,,m,8.508015,,,,,,flowers/images/290.jpg,flowers/images/212.jpg,174,Maggie ,001,2020-11-20_17h25.47.599,test1,2020.2.5,MacIntel,60,,,0,173,173,173,1
,,,,m,0.77667,,,,,,flowers/images/206.jpg,flowers/images/397.jpg,175,Maggie ,001,2020-11-20_17h25.47.599,test1,2020.2.5,MacIntel,60,,,0,174,174,174,1
,,,,m,0.651355,,,,,,flowers/images/317.jpg,flowers/images/297.jpg,176,Maggie ,001,2020-11-20_17h25.47.599,test1,2020.2.5,MacIntel,60,,,0,175,175,175,1
,,,,m,1.191485,,,,,,flowers/images/329.jpg,flowers/images/255.jpg,177,Maggie ,001,2020-11-20_17h25.47.599,test1,2020.2.5,MacIntel,60,,,0,176,176,176,1
,,,,z,0.28006,,,,,,flowers/images/225.jpg,flowers/images/91.jpg,178,Maggie ,001,2020-11-20_17h25.47.599,test1,2020.2.5,MacIntel,60,,,0,177,177,177,1
,,,,m,0.33401,,,,,,flowers/images/11.jpg,flowers/images/256.jpg,179,Maggie ,001,2020-11-20_17h25.47.599,test1,2020.2.5,MacIntel,60,,,0,178,178,178,1
,,,,z,0.59313,,,,,,flowers/images/234.jpg,flowers/images/64.jpg,180,Maggie ,001,2020-11-20_17h25.47.599,test1,2020.2.5,MacIntel,60,,,0,179,179,179,1
,,,,z,0.39796,,,,,,flowers/images/342.jpg,flowers/images/26.jpg,181,Maggie ,001,2020-11-20_17h25.47.599,test1,2020.2.5,MacIntel,60,,,0,180,180,180,1
,,,,m,0.253065,,,,,,flowers/images/391.jpg,flowers/images/286.jpg,182,Maggie ,001,2020-11-20_17h25.47.599,test1,2020.2.5,MacIntel,60,,,0,181,181,181,1
,,,,m,0.34237,,,,,,flowers/images/221.jpg,flowers/images/268.jpg,183,Maggie ,001,2020-11-20_17h25.47.599,test1,2020.2.5,MacIntel,60,,,0,182,182,182,1
,,,,m,0.46404,,,,,,flowers/images/210.jpg,flowers/images/84.jpg,184,Maggie ,001,2020-11-20_17h25.47.599,test1,2020.2.5,MacIntel,60,,,0,183,183,183,1
,,,,m,0.42077,,,,,,flowers/images/138.jpg,flowers/images/77.jpg,185,Maggie ,001,2020-11-20_17h25.47.599,test1,2020.2.5,MacIntel,60,,,0,184,184,184,1
,,,,m,0.312055,,,,,,flowers/images/315.jpg,flowers/images/269.jpg,186,Maggie ,001,2020-11-20_17h25.47.599,test1,2020.2.5,MacIntel,60,,,0,185,185,185,1
,,,,m,0.905585,,,,,,flowers/images/308.jpg,flowers/images/265.jpg,187,Maggie ,001,2020-11-20_17h25.47.599,test1,2020.2.5,MacIntel,60,,,0,186,186,186,1
,,,,m,1.201345,,,,,,flowers/images/88.jpg,flowers/images/56.jpg,188,Maggie ,001,2020-11-20_17h25.47.599,test1,2020.2.5,MacIntel,60,,,0,187,187,187,1
,,,,m,0.77774,,,,,,flowers/images/102.jpg,flowers/images/126.jpg,189,Maggie ,001,2020-11-20_17h25.47.599,test1,2020.2.5,MacIntel,60,,,0,188,188,188,1
,,,,m,0.499075,,,,,,flowers/images/132.jpg,flowers/images/389.jpg,190,Maggie ,001,2020-11-20_17h25.47.599,test1,2020.2.5,MacIntel,60,,,0,189,189,189,1
,,,,m,0.572475,,,,,,flowers/images/186.jpg,flowers/images/144.jpg,191,Maggie ,001,2020-11-20_17h25.47.599,test1,2020.2.5,MacIntel,60,,,0,190,190,190,1
,,,,m,0.74141,,,,,,flowers/images/284.jpg,flowers/images/92.jpg,192,Maggie ,001,2020-11-20_17h25.47.599,test1,2020.2.5,MacIntel,60,,,0,191,191,191,1
,,,,m,0.51778,,,,,,flowers/images/396.jpg,flowers/images/24.jpg,193,Maggie ,001,2020-11-20_17h25.47.599,test1,2020.2.5,MacIntel,60,,,0,192,192,192,1
,,,,m,0.43194,,,,,,flowers/images/374.jpg,flowers/images/287.jpg,194,Maggie ,001,2020-11-20_17h25.47.599,test1,2020.2.5,MacIntel,60,,,0,193,193,193,1
,,,,m,0.56837,,,,,,flowers/images/140.jpg,flowers/images/267.jpg,195,Maggie ,001,2020-11-20_17h25.47.599,test1,2020.2.5,MacIntel,60,,,0,194,194,194,1
,,,,m,0.509295,,,,,,flowers/images/267.jpg,flowers/images/343.jpg,196,Maggie ,001,2020-11-20_17h25.47.599,test1,2020.2.5,MacIntel,60,,,0,195,195,195,1
,,,,m,0.486775,,,,,,flowers/images/286.jpg,flowers/images/35.jpg,197,Maggie ,001,2020-11-20_17h25.47.599,test1,2020.2.5,MacIntel,60,,,0,196,196,196,1
,,,,m,0.40673,,,,,,flowers/images/143.jpg,flowers/images/391.jpg,198,Maggie ,001,2020-11-20_17h25.47.599,test1,2020.2.5,MacIntel,60,,,0,197,197,197,1
,,,,z,1.414925,,,,,,flowers/images/196.jpg,flowers/images/155.jpg,199,Maggie ,001,2020-11-20_17h25.47.599,test1,2020.2.5,MacIntel,60,,,0,198,198,198,1
,,,,m,1.64748,,,,,,flowers/images/281.jpg,flowers/images/394.jpg,200,Maggie ,001,2020-11-20_17h25.47.599,test1,2020.2.5,MacIntel,60,,,0,199,199,199,1
