key_resp.keys,key_resp.rt,key_resp_3.keys,key_resp_3.rt,key_resp_2.keys,key_resp_2.rt,trials.thisRepN,trials.thisTrialN,trials.thisN,trials.thisIndex,trials.ran,image_left,image_right,trial_num,participant,session,date,expName,psychopyVersion,OS,frameRate
space,13.87281,space,8.62299,z,27.097995,0,0,0,0,1,flowers/images/125.jpg,flowers/images/165.jpg,1,ningtong,001,2020-11-19_13h42.46.876,test1,2020.2.5,MacIntel,60
,,,,z,13.721695,0,1,1,1,1,flowers/images/168.jpg,flowers/images/195.jpg,2,ningtong,001,2020-11-19_13h42.46.876,test1,2020.2.5,MacIntel,60
,,,,m,6.415395,0,2,2,2,1,flowers/images/114.jpg,flowers/images/131.jpg,3,ningtong,001,2020-11-19_13h42.46.876,test1,2020.2.5,MacIntel,60
,,,,z,53.29955,0,3,3,3,1,flowers/images/110.jpg,flowers/images/241.jpg,4,ningtong,001,2020-11-19_13h42.46.876,test1,2020.2.5,MacIntel,60
,,,,m,5.968005,0,4,4,4,1,flowers/images/157.jpg,flowers/images/170.jpg,5,ningtong,001,2020-11-19_13h42.46.876,test1,2020.2.5,MacIntel,60
,,,,m,6.537755,0,5,5,5,1,flowers/images/291.jpg,flowers/images/302.jpg,6,ningtong,001,2020-11-19_13h42.46.876,test1,2020.2.5,MacIntel,60
,,,,z,12.75979,0,6,6,6,1,flowers/images/335.jpg,flowers/images/272.jpg,7,ningtong,001,2020-11-19_13h42.46.876,test1,2020.2.5,MacIntel,60
,,,,z,4.2657,0,7,7,7,1,flowers/images/122.jpg,flowers/images/72.jpg,8,ningtong,001,2020-11-19_13h42.46.876,test1,2020.2.5,MacIntel,60
,,,,m,3.13317,0,8,8,8,1,flowers/images/240.jpg,flowers/images/67.jpg,9,ningtong,001,2020-11-19_13h42.46.876,test1,2020.2.5,MacIntel,60
,,,,z,24.73167,0,9,9,9,1,flowers/images/324.jpg,flowers/images/180.jpg,10,ningtong,001,2020-11-19_13h42.46.876,test1,2020.2.5,MacIntel,60
,,,,m,1.401755,0,10,10,10,1,flowers/images/148.jpg,flowers/images/275.jpg,11,ningtong,001,2020-11-19_13h42.46.876,test1,2020.2.5,MacIntel,60
,,,,m,3.78493,0,11,11,11,1,flowers/images/61.jpg,flowers/images/2.jpg,12,ningtong,001,2020-11-19_13h42.46.876,test1,2020.2.5,MacIntel,60
,,,,m,7.3346,0,12,12,12,1,flowers/images/20.jpg,flowers/images/378.jpg,13,ningtong,001,2020-11-19_13h42.46.876,test1,2020.2.5,MacIntel,60
,,,,z,1.90042,0,13,13,13,1,flowers/images/181.jpg,flowers/images/363.jpg,14,ningtong,001,2020-11-19_13h42.46.876,test1,2020.2.5,MacIntel,60
,,,,m,1.288535,0,14,14,14,1,flowers/images/87.jpg,flowers/images/187.jpg,15,ningtong,001,2020-11-19_13h42.46.876,test1,2020.2.5,MacIntel,60
,,,,m,8.5515,0,15,15,15,1,flowers/images/150.jpg,flowers/images/281.jpg,16,ningtong,001,2020-11-19_13h42.46.876,test1,2020.2.5,MacIntel,60
,,,,z,2.702915,0,16,16,16,1,flowers/images/112.jpg,flowers/images/176.jpg,17,ningtong,001,2020-11-19_13h42.46.876,test1,2020.2.5,MacIntel,60
,,,,m,2.185375,0,17,17,17,1,flowers/images/236.jpg,flowers/images/243.jpg,18,ningtong,001,2020-11-19_13h42.46.876,test1,2020.2.5,MacIntel,60
,,,,z,6.37628,0,18,18,18,1,flowers/images/133.jpg,flowers/images/247.jpg,19,ningtong,001,2020-11-19_13h42.46.876,test1,2020.2.5,MacIntel,60
,,,,m,3.1127,0,19,19,19,1,flowers/images/136.jpg,flowers/images/164.jpg,20,ningtong,001,2020-11-19_13h42.46.876,test1,2020.2.5,MacIntel,60
,,,,z,1.501955,0,20,20,20,1,flowers/images/185.jpg,flowers/images/211.jpg,21,ningtong,001,2020-11-19_13h42.46.876,test1,2020.2.5,MacIntel,60
,,,,m,1.445425,0,21,21,21,1,flowers/images/118.jpg,flowers/images/371.jpg,22,ningtong,001,2020-11-19_13h42.46.876,test1,2020.2.5,MacIntel,60
,,,,m,3.55107,0,22,22,22,1,flowers/images/177.jpg,flowers/images/5.jpg,23,ningtong,001,2020-11-19_13h42.46.876,test1,2020.2.5,MacIntel,60
,,,,m,1.02688,0,23,23,23,1,flowers/images/91.jpg,flowers/images/215.jpg,24,ningtong,001,2020-11-19_13h42.46.876,test1,2020.2.5,MacIntel,60
,,,,z,2.233205,0,24,24,24,1,flowers/images/277.jpg,flowers/images/11.jpg,25,ningtong,001,2020-11-19_13h42.46.876,test1,2020.2.5,MacIntel,60
,,,,m,2.428345,0,25,25,25,1,flowers/images/197.jpg,flowers/images/25.jpg,26,ningtong,001,2020-11-19_13h42.46.876,test1,2020.2.5,MacIntel,60
,,,,z,9.18364,0,26,26,26,1,flowers/images/131.jpg,flowers/images/63.jpg,27,ningtong,001,2020-11-19_13h42.46.876,test1,2020.2.5,MacIntel,60
,,,,m,2.43425,0,27,27,27,1,flowers/images/106.jpg,flowers/images/221.jpg,28,ningtong,001,2020-11-19_13h42.46.876,test1,2020.2.5,MacIntel,60
,,,,z,0.959075,0,28,28,28,1,flowers/images/295.jpg,flowers/images/307.jpg,29,ningtong,001,2020-11-19_13h42.46.876,test1,2020.2.5,MacIntel,60
,,,,z,3.181155,0,29,29,29,1,flowers/images/368.jpg,flowers/images/384.jpg,30,ningtong,001,2020-11-19_13h42.46.876,test1,2020.2.5,MacIntel,60
,,,,z,2.80102,0,30,30,30,1,flowers/images/96.jpg,flowers/images/140.jpg,31,ningtong,001,2020-11-19_13h42.46.876,test1,2020.2.5,MacIntel,60
,,,,z,5.176675,0,31,31,31,1,flowers/images/272.jpg,flowers/images/59.jpg,32,ningtong,001,2020-11-19_13h42.46.876,test1,2020.2.5,MacIntel,60
,,,,m,2.51726,0,32,32,32,1,flowers/images/389.jpg,flowers/images/110.jpg,33,ningtong,001,2020-11-19_13h42.46.876,test1,2020.2.5,MacIntel,60
,,,,m,1.185085,0,33,33,33,1,flowers/images/237.jpg,flowers/images/387.jpg,34,ningtong,001,2020-11-19_13h42.46.876,test1,2020.2.5,MacIntel,60
,,,,z,5.801105,0,34,34,34,1,flowers/images/35.jpg,flowers/images/142.jpg,35,ningtong,001,2020-11-19_13h42.46.876,test1,2020.2.5,MacIntel,60
,,,,m,4.90135,0,35,35,35,1,flowers/images/49.jpg,flowers/images/200.jpg,36,ningtong,001,2020-11-19_13h42.46.876,test1,2020.2.5,MacIntel,60
,,,,m,3.71816,0,36,36,36,1,flowers/images/142.jpg,flowers/images/328.jpg,37,ningtong,001,2020-11-19_13h42.46.876,test1,2020.2.5,MacIntel,60
,,,,m,3.886145,0,37,37,37,1,flowers/images/339.jpg,flowers/images/264.jpg,38,ningtong,001,2020-11-19_13h42.46.876,test1,2020.2.5,MacIntel,60
,,,,z,5.369985,0,38,38,38,1,flowers/images/394.jpg,flowers/images/266.jpg,39,ningtong,001,2020-11-19_13h42.46.876,test1,2020.2.5,MacIntel,60
,,,,m,1.389925,0,39,39,39,1,flowers/images/89.jpg,flowers/images/298.jpg,40,ningtong,001,2020-11-19_13h42.46.876,test1,2020.2.5,MacIntel,60
,,,,z,3.077015,0,40,40,40,1,flowers/images/325.jpg,flowers/images/47.jpg,41,ningtong,001,2020-11-19_13h42.46.876,test1,2020.2.5,MacIntel,60
,,,,z,2.38977,0,41,41,41,1,flowers/images/40.jpg,flowers/images/162.jpg,42,ningtong,001,2020-11-19_13h42.46.876,test1,2020.2.5,MacIntel,60
,,,,m,3.19837,0,42,42,42,1,flowers/images/266.jpg,flowers/images/181.jpg,43,ningtong,001,2020-11-19_13h42.46.876,test1,2020.2.5,MacIntel,60
,,,,z,2.318635,0,43,43,43,1,flowers/images/100.jpg,flowers/images/396.jpg,44,ningtong,001,2020-11-19_13h42.46.876,test1,2020.2.5,MacIntel,60
,,,,z,0.97024,0,44,44,44,1,flowers/images/144.jpg,flowers/images/231.jpg,45,ningtong,001,2020-11-19_13h42.46.876,test1,2020.2.5,MacIntel,60
,,,,m,4.867575,0,45,45,45,1,flowers/images/289.jpg,flowers/images/202.jpg,46,ningtong,001,2020-11-19_13h42.46.876,test1,2020.2.5,MacIntel,60
,,,,m,1.134635,0,46,46,46,1,flowers/images/178.jpg,flowers/images/86.jpg,47,ningtong,001,2020-11-19_13h42.46.876,test1,2020.2.5,MacIntel,60
,,,,z,0.768395,0,47,47,47,1,flowers/images/360.jpg,flowers/images/393.jpg,48,ningtong,001,2020-11-19_13h42.46.876,test1,2020.2.5,MacIntel,60
,,,,m,1.11813,0,48,48,48,1,flowers/images/108.jpg,flowers/images/288.jpg,49,ningtong,001,2020-11-19_13h42.46.876,test1,2020.2.5,MacIntel,60
,,,,m,1.68405,0,49,49,49,1,flowers/images/165.jpg,flowers/images/154.jpg,50,ningtong,001,2020-11-19_13h42.46.876,test1,2020.2.5,MacIntel,60
,,,,m,7.40221,0,50,50,50,1,flowers/images/27.jpg,flowers/images/121.jpg,51,ningtong,001,2020-11-19_13h42.46.876,test1,2020.2.5,MacIntel,60
,,,,z,1.290175,0,51,51,51,1,flowers/images/302.jpg,flowers/images/203.jpg,52,ningtong,001,2020-11-19_13h42.46.876,test1,2020.2.5,MacIntel,60
,,,,m,12.61882,0,52,52,52,1,flowers/images/255.jpg,flowers/images/42.jpg,53,ningtong,001,2020-11-19_13h42.46.876,test1,2020.2.5,MacIntel,60
,,,,z,1.698455,0,53,53,53,1,flowers/images/31.jpg,flowers/images/289.jpg,54,ningtong,001,2020-11-19_13h42.46.876,test1,2020.2.5,MacIntel,60
,,,,m,1.341635,0,54,54,54,1,flowers/images/66.jpg,flowers/images/246.jpg,55,ningtong,001,2020-11-19_13h42.46.876,test1,2020.2.5,MacIntel,60
,,,,z,3.33872,0,55,55,55,1,flowers/images/355.jpg,flowers/images/115.jpg,56,ningtong,001,2020-11-19_13h42.46.876,test1,2020.2.5,MacIntel,60
,,,,m,2.69497,0,56,56,56,1,flowers/images/241.jpg,flowers/images/345.jpg,57,ningtong,001,2020-11-19_13h42.46.876,test1,2020.2.5,MacIntel,60
,,,,m,2.3604,0,57,57,57,1,flowers/images/296.jpg,flowers/images/37.jpg,58,ningtong,001,2020-11-19_13h42.46.876,test1,2020.2.5,MacIntel,60
,,,,z,4.78012,0,58,58,58,1,flowers/images/235.jpg,flowers/images/373.jpg,59,ningtong,001,2020-11-19_13h42.46.876,test1,2020.2.5,MacIntel,60
,,,,z,3.17396,0,59,59,59,1,flowers/images/173.jpg,flowers/images/93.jpg,60,ningtong,001,2020-11-19_13h42.46.876,test1,2020.2.5,MacIntel,60
,,,,m,1.12993,0,60,60,60,1,flowers/images/331.jpg,flowers/images/88.jpg,61,ningtong,001,2020-11-19_13h42.46.876,test1,2020.2.5,MacIntel,60
,,,,z,2.06845,0,61,61,61,1,flowers/images/134.jpg,flowers/images/127.jpg,62,ningtong,001,2020-11-19_13h42.46.876,test1,2020.2.5,MacIntel,60
,,,,z,4.35785,0,62,62,62,1,flowers/images/285.jpg,flowers/images/201.jpg,63,ningtong,001,2020-11-19_13h42.46.876,test1,2020.2.5,MacIntel,60
,,,,z,5.01848,0,63,63,63,1,flowers/images/151.jpg,flowers/images/52.jpg,64,ningtong,001,2020-11-19_13h42.46.876,test1,2020.2.5,MacIntel,60
,,,,m,2.93441,0,64,64,64,1,flowers/images/208.jpg,flowers/images/186.jpg,65,ningtong,001,2020-11-19_13h42.46.876,test1,2020.2.5,MacIntel,60
,,,,m,6.050985,0,65,65,65,1,flowers/images/80.jpg,flowers/images/124.jpg,66,ningtong,001,2020-11-19_13h42.46.876,test1,2020.2.5,MacIntel,60
,,,,z,0.76865,0,66,66,66,1,flowers/images/303.jpg,flowers/images/347.jpg,67,ningtong,001,2020-11-19_13h42.46.876,test1,2020.2.5,MacIntel,60
,,,,m,1.900785,0,67,67,67,1,flowers/images/6.jpg,flowers/images/262.jpg,68,ningtong,001,2020-11-19_13h42.46.876,test1,2020.2.5,MacIntel,60
,,,,m,1.90789,0,68,68,68,1,flowers/images/85.jpg,flowers/images/20.jpg,69,ningtong,001,2020-11-19_13h42.46.876,test1,2020.2.5,MacIntel,60
,,,,z,1.64761,0,69,69,69,1,flowers/images/392.jpg,flowers/images/15.jpg,70,ningtong,001,2020-11-19_13h42.46.876,test1,2020.2.5,MacIntel,60
,,,,m,1.435895,0,70,70,70,1,flowers/images/341.jpg,flowers/images/357.jpg,71,ningtong,001,2020-11-19_13h42.46.876,test1,2020.2.5,MacIntel,60
,,,,m,1.81214,0,71,71,71,1,flowers/images/293.jpg,flowers/images/158.jpg,72,ningtong,001,2020-11-19_13h42.46.876,test1,2020.2.5,MacIntel,60
,,,,z,1.635435,0,72,72,72,1,flowers/images/390.jpg,flowers/images/58.jpg,73,ningtong,001,2020-11-19_13h42.46.876,test1,2020.2.5,MacIntel,60
,,,,z,1.80151,0,73,73,73,1,flowers/images/82.jpg,flowers/images/16.jpg,74,ningtong,001,2020-11-19_13h42.46.876,test1,2020.2.5,MacIntel,60
,,,,z,4.519745,0,74,74,74,1,flowers/images/336.jpg,flowers/images/130.jpg,75,ningtong,001,2020-11-19_13h42.46.876,test1,2020.2.5,MacIntel,60
,,,,m,0.88599,0,75,75,75,1,flowers/images/160.jpg,flowers/images/105.jpg,76,ningtong,001,2020-11-19_13h42.46.876,test1,2020.2.5,MacIntel,60
,,,,z,5.51773,0,76,76,76,1,flowers/images/328.jpg,flowers/images/305.jpg,77,ningtong,001,2020-11-19_13h42.46.876,test1,2020.2.5,MacIntel,60
,,,,m,1.184855,0,77,77,77,1,flowers/images/180.jpg,flowers/images/249.jpg,78,ningtong,001,2020-11-19_13h42.46.876,test1,2020.2.5,MacIntel,60
,,,,m,4.48336,0,78,78,78,1,flowers/images/169.jpg,flowers/images/94.jpg,79,ningtong,001,2020-11-19_13h42.46.876,test1,2020.2.5,MacIntel,60
,,,,m,1.268485,0,79,79,79,1,flowers/images/145.jpg,flowers/images/277.jpg,80,ningtong,001,2020-11-19_13h42.46.876,test1,2020.2.5,MacIntel,60
,,,,m,2.61088,0,80,80,80,1,flowers/images/358.jpg,flowers/images/197.jpg,81,ningtong,001,2020-11-19_13h42.46.876,test1,2020.2.5,MacIntel,60
,,,,m,4.010235,0,81,81,81,1,flowers/images/71.jpg,flowers/images/128.jpg,82,ningtong,001,2020-11-19_13h42.46.876,test1,2020.2.5,MacIntel,60
,,,,m,1.22161,0,82,82,82,1,flowers/images/192.jpg,flowers/images/379.jpg,83,ningtong,001,2020-11-19_13h42.46.876,test1,2020.2.5,MacIntel,60
,,,,m,2.26748,0,83,83,83,1,flowers/images/189.jpg,flowers/images/271.jpg,84,ningtong,001,2020-11-19_13h42.46.876,test1,2020.2.5,MacIntel,60
,,,,m,1.302095,0,84,84,84,1,flowers/images/15.jpg,flowers/images/28.jpg,85,ningtong,001,2020-11-19_13h42.46.876,test1,2020.2.5,MacIntel,60
,,,,m,2.268695,0,85,85,85,1,flowers/images/171.jpg,flowers/images/97.jpg,86,ningtong,001,2020-11-19_13h42.46.876,test1,2020.2.5,MacIntel,60
,,,,z,1.85525,0,86,86,86,1,flowers/images/287.jpg,flowers/images/29.jpg,87,ningtong,001,2020-11-19_13h42.46.876,test1,2020.2.5,MacIntel,60
,,,,m,1.17144,0,87,87,87,1,flowers/images/381.jpg,flowers/images/356.jpg,88,ningtong,001,2020-11-19_13h42.46.876,test1,2020.2.5,MacIntel,60
,,,,z,4.29128,0,88,88,88,1,flowers/images/76.jpg,flowers/images/10.jpg,89,ningtong,001,2020-11-19_13h42.46.876,test1,2020.2.5,MacIntel,60
,,,,z,1.27584,0,89,89,89,1,flowers/images/239.jpg,flowers/images/226.jpg,90,ningtong,001,2020-11-19_13h42.46.876,test1,2020.2.5,MacIntel,60
,,,,m,1.90143,0,90,90,90,1,flowers/images/398.jpg,flowers/images/368.jpg,91,ningtong,001,2020-11-19_13h42.46.876,test1,2020.2.5,MacIntel,60
,,,,m,1.31809,0,91,91,91,1,flowers/images/21.jpg,flowers/images/53.jpg,92,ningtong,001,2020-11-19_13h42.46.876,test1,2020.2.5,MacIntel,60
,,,,m,2.066415,0,92,92,92,1,flowers/images/352.jpg,flowers/images/230.jpg,93,ningtong,001,2020-11-19_13h42.46.876,test1,2020.2.5,MacIntel,60
,,,,m,3.300745,0,93,93,93,1,flowers/images/54.jpg,flowers/images/280.jpg,94,ningtong,001,2020-11-19_13h42.46.876,test1,2020.2.5,MacIntel,60
,,,,z,3.623755,0,94,94,94,1,flowers/images/259.jpg,flowers/images/184.jpg,95,ningtong,001,2020-11-19_13h42.46.876,test1,2020.2.5,MacIntel,60
,,,,m,1.771655,0,95,95,95,1,flowers/images/7.jpg,flowers/images/137.jpg,96,ningtong,001,2020-11-19_13h42.46.876,test1,2020.2.5,MacIntel,60
,,,,m,0.944665,0,96,96,96,1,flowers/images/292.jpg,flowers/images/364.jpg,97,ningtong,001,2020-11-19_13h42.46.876,test1,2020.2.5,MacIntel,60
,,,,m,1.300125,0,97,97,97,1,flowers/images/84.jpg,flowers/images/245.jpg,98,ningtong,001,2020-11-19_13h42.46.876,test1,2020.2.5,MacIntel,60
,,,,m,4.917735,0,98,98,98,1,flowers/images/141.jpg,flowers/images/183.jpg,99,ningtong,001,2020-11-19_13h42.46.876,test1,2020.2.5,MacIntel,60
,,,,m,1.35099,0,99,99,99,1,flowers/images/45.jpg,flowers/images/375.jpg,100,ningtong,001,2020-11-19_13h42.46.876,test1,2020.2.5,MacIntel,60
,,,,z,1.68556,0,100,100,100,1,flowers/images/111.jpg,flowers/images/395.jpg,101,ningtong,001,2020-11-19_13h42.46.876,test1,2020.2.5,MacIntel,60
,,,,m,0.920125,0,101,101,101,1,flowers/images/46.jpg,flowers/images/360.jpg,102,ningtong,001,2020-11-19_13h42.46.876,test1,2020.2.5,MacIntel,60
,,,,z,1.53518,0,102,102,102,1,flowers/images/399.jpg,flowers/images/4.jpg,103,ningtong,001,2020-11-19_13h42.46.876,test1,2020.2.5,MacIntel,60
,,,,m,3.368425,0,103,103,103,1,flowers/images/250.jpg,flowers/images/113.jpg,104,ningtong,001,2020-11-19_13h42.46.876,test1,2020.2.5,MacIntel,60
,,,,z,1.87867,0,104,104,104,1,flowers/images/359.jpg,flowers/images/283.jpg,105,ningtong,001,2020-11-19_13h42.46.876,test1,2020.2.5,MacIntel,60
,,,,z,1.50236,0,105,105,105,1,flowers/images/209.jpg,flowers/images/309.jpg,106,ningtong,001,2020-11-19_13h42.46.876,test1,2020.2.5,MacIntel,60
,,,,m,3.56262,0,106,106,106,1,flowers/images/219.jpg,flowers/images/285.jpg,107,ningtong,001,2020-11-19_13h42.46.876,test1,2020.2.5,MacIntel,60
,,,,m,1.507755,0,107,107,107,1,flowers/images/159.jpg,flowers/images/377.jpg,108,ningtong,001,2020-11-19_13h42.46.876,test1,2020.2.5,MacIntel,60
,,,,m,1.4181,0,108,108,108,1,flowers/images/17.jpg,flowers/images/365.jpg,109,ningtong,001,2020-11-19_13h42.46.876,test1,2020.2.5,MacIntel,60
,,,,m,1.635275,0,109,109,109,1,flowers/images/247.jpg,flowers/images/14.jpg,110,ningtong,001,2020-11-19_13h42.46.876,test1,2020.2.5,MacIntel,60
,,,,z,1.105085,0,110,110,110,1,flowers/images/357.jpg,flowers/images/229.jpg,111,ningtong,001,2020-11-19_13h42.46.876,test1,2020.2.5,MacIntel,60
,,,,m,4.49984,0,111,111,111,1,flowers/images/378.jpg,flowers/images/299.jpg,112,ningtong,001,2020-11-19_13h42.46.876,test1,2020.2.5,MacIntel,60
,,,,z,2.52931,0,112,112,112,1,flowers/images/191.jpg,flowers/images/304.jpg,113,ningtong,001,2020-11-19_13h42.46.876,test1,2020.2.5,MacIntel,60
,,,,m,1.383835,0,113,113,113,1,flowers/images/195.jpg,flowers/images/44.jpg,114,ningtong,001,2020-11-19_13h42.46.876,test1,2020.2.5,MacIntel,60
,,,,z,1.73464,0,114,114,114,1,flowers/images/126.jpg,flowers/images/161.jpg,115,ningtong,001,2020-11-19_13h42.46.876,test1,2020.2.5,MacIntel,60
,,,,m,1.50978,0,115,115,115,1,flowers/images/340.jpg,flowers/images/178.jpg,116,ningtong,001,2020-11-19_13h42.46.876,test1,2020.2.5,MacIntel,60
,,,,m,2.15728,0,116,116,116,1,flowers/images/201.jpg,flowers/images/21.jpg,117,ningtong,001,2020-11-19_13h42.46.876,test1,2020.2.5,MacIntel,60
,,,,z,5.333685,0,117,117,117,1,flowers/images/307.jpg,flowers/images/122.jpg,118,ningtong,001,2020-11-19_13h42.46.876,test1,2020.2.5,MacIntel,60
,,,,m,7.45671,0,118,118,118,1,flowers/images/194.jpg,flowers/images/23.jpg,119,ningtong,001,2020-11-19_13h42.46.876,test1,2020.2.5,MacIntel,60
,,,,m,1.377065,0,119,119,119,1,flowers/images/318.jpg,flowers/images/293.jpg,120,ningtong,001,2020-11-19_13h42.46.876,test1,2020.2.5,MacIntel,60
,,,,z,0.81963,0,120,120,120,1,flowers/images/69.jpg,flowers/images/327.jpg,121,ningtong,001,2020-11-19_13h42.46.876,test1,2020.2.5,MacIntel,60
,,,,z,9.17862,0,121,121,121,1,flowers/images/98.jpg,flowers/images/208.jpg,122,ningtong,001,2020-11-19_13h42.46.876,test1,2020.2.5,MacIntel,60
,,,,z,1.517545,0,122,122,122,1,flowers/images/184.jpg,flowers/images/96.jpg,123,ningtong,001,2020-11-19_13h42.46.876,test1,2020.2.5,MacIntel,60
,,,,z,0.75246,0,123,123,123,1,flowers/images/44.jpg,flowers/images/317.jpg,124,ningtong,001,2020-11-19_13h42.46.876,test1,2020.2.5,MacIntel,60
,,,,z,1.06905,0,124,124,124,1,flowers/images/222.jpg,flowers/images/9.jpg,125,ningtong,001,2020-11-19_13h42.46.876,test1,2020.2.5,MacIntel,60
,,,,z,1.347385,0,125,125,125,1,flowers/images/218.jpg,flowers/images/153.jpg,126,ningtong,001,2020-11-19_13h42.46.876,test1,2020.2.5,MacIntel,60
,,,,z,0.670275,0,126,126,126,1,flowers/images/275.jpg,flowers/images/295.jpg,127,ningtong,001,2020-11-19_13h42.46.876,test1,2020.2.5,MacIntel,60
,,,,m,0.92931,0,127,127,127,1,flowers/images/172.jpg,flowers/images/34.jpg,128,ningtong,001,2020-11-19_13h42.46.876,test1,2020.2.5,MacIntel,60
,,,,z,2.019095,0,128,128,128,1,flowers/images/345.jpg,flowers/images/89.jpg,129,ningtong,001,2020-11-19_13h42.46.876,test1,2020.2.5,MacIntel,60
,,,,z,2.08637,0,129,129,129,1,flowers/images/334.jpg,flowers/images/376.jpg,130,ningtong,001,2020-11-19_13h42.46.876,test1,2020.2.5,MacIntel,60
,,,,z,1.567795,0,130,130,130,1,flowers/images/93.jpg,flowers/images/6.jpg,131,ningtong,001,2020-11-19_13h42.46.876,test1,2020.2.5,MacIntel,60
,,,,m,0.902195,0,131,131,131,1,flowers/images/183.jpg,flowers/images/76.jpg,132,ningtong,001,2020-11-19_13h42.46.876,test1,2020.2.5,MacIntel,60
,,,,m,8.933915,0,132,132,132,1,flowers/images/304.jpg,flowers/images/224.jpg,133,ningtong,001,2020-11-19_13h42.46.876,test1,2020.2.5,MacIntel,60
,,,,z,1.441655,0,133,133,133,1,flowers/images/330.jpg,flowers/images/81.jpg,134,ningtong,001,2020-11-19_13h42.46.876,test1,2020.2.5,MacIntel,60
,,,,z,4.57568,0,134,134,134,1,flowers/images/147.jpg,flowers/images/36.jpg,135,ningtong,001,2020-11-19_13h42.46.876,test1,2020.2.5,MacIntel,60
,,,,m,1.25542,0,135,135,135,1,flowers/images/62.jpg,flowers/images/321.jpg,136,ningtong,001,2020-11-19_13h42.46.876,test1,2020.2.5,MacIntel,60
,,,,m,7.334005,0,136,136,136,1,flowers/images/367.jpg,flowers/images/311.jpg,137,ningtong,001,2020-11-19_13h42.46.876,test1,2020.2.5,MacIntel,60
,,,,m,1.496045,0,137,137,137,1,flowers/images/326.jpg,flowers/images/7.jpg,138,ningtong,001,2020-11-19_13h42.46.876,test1,2020.2.5,MacIntel,60
,,,,m,3.634585,0,138,138,138,1,flowers/images/28.jpg,flowers/images/382.jpg,139,ningtong,001,2020-11-19_13h42.46.876,test1,2020.2.5,MacIntel,60
,,,,z,1.74953,0,139,139,139,1,flowers/images/156.jpg,flowers/images/152.jpg,140,ningtong,001,2020-11-19_13h42.46.876,test1,2020.2.5,MacIntel,60
,,,,z,1.3258,0,140,140,140,1,flowers/images/113.jpg,flowers/images/167.jpg,141,ningtong,001,2020-11-19_13h42.46.876,test1,2020.2.5,MacIntel,60
,,,,m,1.53685,0,141,141,141,1,flowers/images/155.jpg,flowers/images/342.jpg,142,ningtong,001,2020-11-19_13h42.46.876,test1,2020.2.5,MacIntel,60
,,,,m,1.5426,0,142,142,142,1,flowers/images/213.jpg,flowers/images/353.jpg,143,ningtong,001,2020-11-19_13h42.46.876,test1,2020.2.5,MacIntel,60
,,,,z,0.95008,0,143,143,143,1,flowers/images/298.jpg,flowers/images/90.jpg,144,ningtong,001,2020-11-19_13h42.46.876,test1,2020.2.5,MacIntel,60
,,,,z,1.168205,0,144,144,144,1,flowers/images/217.jpg,flowers/images/240.jpg,145,ningtong,001,2020-11-19_13h42.46.876,test1,2020.2.5,MacIntel,60
,,,,m,4.26674,0,145,145,145,1,flowers/images/97.jpg,flowers/images/133.jpg,146,ningtong,001,2020-11-19_13h42.46.876,test1,2020.2.5,MacIntel,60
,,,,m,1.23537,0,146,146,146,1,flowers/images/354.jpg,flowers/images/310.jpg,147,ningtong,001,2020-11-19_13h42.46.876,test1,2020.2.5,MacIntel,60
,,,,z,1.414,0,147,147,147,1,flowers/images/377.jpg,flowers/images/273.jpg,148,ningtong,001,2020-11-19_13h42.46.876,test1,2020.2.5,MacIntel,60
,,,,m,2.76005,0,148,148,148,1,flowers/images/121.jpg,flowers/images/294.jpg,149,ningtong,001,2020-11-19_13h42.46.876,test1,2020.2.5,MacIntel,60
,,,,m,1.285055,0,149,149,149,1,flowers/images/14.jpg,flowers/images/101.jpg,150,ningtong,001,2020-11-19_13h42.46.876,test1,2020.2.5,MacIntel,60
,,,,z,1.51835,0,150,150,150,1,flowers/images/321.jpg,flowers/images/51.jpg,151,ningtong,001,2020-11-19_13h42.46.876,test1,2020.2.5,MacIntel,60
,,,,m,2.28838,0,151,151,151,1,flowers/images/362.jpg,flowers/images/175.jpg,152,ningtong,001,2020-11-19_13h42.46.876,test1,2020.2.5,MacIntel,60
,,,,m,4.867355,0,152,152,152,1,flowers/images/203.jpg,flowers/images/248.jpg,153,ningtong,001,2020-11-19_13h42.46.876,test1,2020.2.5,MacIntel,60
,,,,m,1.235485,0,153,153,153,1,flowers/images/12.jpg,flowers/images/300.jpg,154,ningtong,001,2020-11-19_13h42.46.876,test1,2020.2.5,MacIntel,60
,,,,m,1.510505,0,154,154,154,1,flowers/images/365.jpg,flowers/images/218.jpg,155,ningtong,001,2020-11-19_13h42.46.876,test1,2020.2.5,MacIntel,60
,,,,z,1.50165,0,155,155,155,1,flowers/images/75.jpg,flowers/images/109.jpg,156,ningtong,001,2020-11-19_13h42.46.876,test1,2020.2.5,MacIntel,60
,,,,m,2.40706,0,156,156,156,1,flowers/images/127.jpg,flowers/images/333.jpg,157,ningtong,001,2020-11-19_13h42.46.876,test1,2020.2.5,MacIntel,60
,,,,m,1.58456,0,157,157,157,1,flowers/images/258.jpg,flowers/images/135.jpg,158,ningtong,001,2020-11-19_13h42.46.876,test1,2020.2.5,MacIntel,60
,,,,z,2.976395,0,158,158,158,1,flowers/images/343.jpg,flowers/images/65.jpg,159,ningtong,001,2020-11-19_13h42.46.876,test1,2020.2.5,MacIntel,60
,,,,z,2.118605,0,159,159,159,1,flowers/images/58.jpg,flowers/images/138.jpg,160,ningtong,001,2020-11-19_13h42.46.876,test1,2020.2.5,MacIntel,60
,,,,z,1.15167,0,160,160,160,1,flowers/images/94.jpg,flowers/images/234.jpg,161,ningtong,001,2020-11-19_13h42.46.876,test1,2020.2.5,MacIntel,60
,,,,z,1.739985,0,161,161,161,1,flowers/images/379.jpg,flowers/images/207.jpg,162,ningtong,001,2020-11-19_13h42.46.876,test1,2020.2.5,MacIntel,60
,,,,z,3.991965,0,162,162,162,1,flowers/images/128.jpg,flowers/images/79.jpg,163,ningtong,001,2020-11-19_13h42.46.876,test1,2020.2.5,MacIntel,60
,,,,m,2.55368,0,163,163,163,1,flowers/images/47.jpg,flowers/images/85.jpg,164,ningtong,001,2020-11-19_13h42.46.876,test1,2020.2.5,MacIntel,60
,,,,m,1.93395,0,164,164,164,1,flowers/images/19.jpg,flowers/images/191.jpg,165,ningtong,001,2020-11-19_13h42.46.876,test1,2020.2.5,MacIntel,60
,,,,z,2.949885,0,165,165,165,1,flowers/images/32.jpg,flowers/images/259.jpg,166,ningtong,001,2020-11-19_13h42.46.876,test1,2020.2.5,MacIntel,60
,,,,z,1.045975,0,166,166,166,1,flowers/images/323.jpg,flowers/images/284.jpg,167,ningtong,001,2020-11-19_13h42.46.876,test1,2020.2.5,MacIntel,60
,,,,m,1.03615,0,167,167,167,1,flowers/images/395.jpg,flowers/images/348.jpg,168,ningtong,001,2020-11-19_13h42.46.876,test1,2020.2.5,MacIntel,60
,,,,m,1.00215,0,168,168,168,1,flowers/images/279.jpg,flowers/images/370.jpg,169,ningtong,001,2020-11-19_13h42.46.876,test1,2020.2.5,MacIntel,60
,,,,z,5.726405,0,169,169,169,1,flowers/images/264.jpg,flowers/images/125.jpg,170,ningtong,001,2020-11-19_13h42.46.876,test1,2020.2.5,MacIntel,60
,,,,z,1.87163,0,170,170,170,1,flowers/images/77.jpg,flowers/images/318.jpg,171,ningtong,001,2020-11-19_13h42.46.876,test1,2020.2.5,MacIntel,60
,,,,z,1.185335,0,171,171,171,1,flowers/images/376.jpg,flowers/images/242.jpg,172,ningtong,001,2020-11-19_13h42.46.876,test1,2020.2.5,MacIntel,60
,,,,z,1.48495,0,172,172,172,1,flowers/images/351.jpg,flowers/images/132.jpg,173,ningtong,001,2020-11-19_13h42.46.876,test1,2020.2.5,MacIntel,60
,,,,m,1.135645,0,173,173,173,1,flowers/images/305.jpg,flowers/images/252.jpg,174,ningtong,001,2020-11-19_13h42.46.876,test1,2020.2.5,MacIntel,60
,,,,m,1.014485,0,174,174,174,1,flowers/images/29.jpg,flowers/images/217.jpg,175,ningtong,001,2020-11-19_13h42.46.876,test1,2020.2.5,MacIntel,60
,,,,m,1.735445,0,175,175,175,1,flowers/images/3.jpg,flowers/images/228.jpg,176,ningtong,001,2020-11-19_13h42.46.876,test1,2020.2.5,MacIntel,60
,,,,m,1.771885,0,176,176,176,1,flowers/images/199.jpg,flowers/images/330.jpg,177,ningtong,001,2020-11-19_13h42.46.876,test1,2020.2.5,MacIntel,60
,,,,z,1.361085,0,177,177,177,1,flowers/images/274.jpg,flowers/images/179.jpg,178,ningtong,001,2020-11-19_13h42.46.876,test1,2020.2.5,MacIntel,60
,,,,m,2.28862,0,178,178,178,1,flowers/images/346.jpg,flowers/images/290.jpg,179,ningtong,001,2020-11-19_13h42.46.876,test1,2020.2.5,MacIntel,60
,,,,z,0.96736,0,179,179,179,1,flowers/images/56.jpg,flowers/images/204.jpg,180,ningtong,001,2020-11-19_13h42.46.876,test1,2020.2.5,MacIntel,60
,,,,z,1.452565,0,180,180,180,1,flowers/images/179.jpg,flowers/images/114.jpg,181,ningtong,001,2020-11-19_13h42.46.876,test1,2020.2.5,MacIntel,60
,,,,m,1.301355,0,181,181,181,1,flowers/images/36.jpg,flowers/images/223.jpg,182,ningtong,001,2020-11-19_13h42.46.876,test1,2020.2.5,MacIntel,60
,,,,z,1.707935,0,182,182,182,1,flowers/images/344.jpg,flowers/images/168.jpg,183,ningtong,001,2020-11-19_13h42.46.876,test1,2020.2.5,MacIntel,60
,,,,z,1.216655,0,183,183,183,1,flowers/images/153.jpg,flowers/images/22.jpg,184,ningtong,001,2020-11-19_13h42.46.876,test1,2020.2.5,MacIntel,60
,,,,m,1.00054,0,184,184,184,1,flowers/images/39.jpg,flowers/images/323.jpg,185,ningtong,001,2020-11-19_13h42.46.876,test1,2020.2.5,MacIntel,60
,,,,m,1.017975,0,185,185,185,1,flowers/images/327.jpg,flowers/images/349.jpg,186,ningtong,001,2020-11-19_13h42.46.876,test1,2020.2.5,MacIntel,60
,,,,z,2.006185,0,186,186,186,1,flowers/images/81.jpg,flowers/images/30.jpg,187,ningtong,001,2020-11-19_13h42.46.876,test1,2020.2.5,MacIntel,60
,,,,z,1.135935,0,187,187,187,1,flowers/images/42.jpg,flowers/images/107.jpg,188,ningtong,001,2020-11-19_13h42.46.876,test1,2020.2.5,MacIntel,60
,,,,z,1.23518,0,188,188,188,1,flowers/images/18.jpg,flowers/images/358.jpg,189,ningtong,001,2020-11-19_13h42.46.876,test1,2020.2.5,MacIntel,60
,,,,m,0.00084,0,189,189,189,1,flowers/images/200.jpg,flowers/images/385.jpg,190,ningtong,001,2020-11-19_13h42.46.876,test1,2020.2.5,MacIntel,60
,,,,m,6.6448,0,190,190,190,1,flowers/images/369.jpg,flowers/images/233.jpg,191,ningtong,001,2020-11-19_13h42.46.876,test1,2020.2.5,MacIntel,60
,,,,m,1.384675,0,191,191,191,1,flowers/images/309.jpg,flowers/images/320.jpg,192,ningtong,001,2020-11-19_13h42.46.876,test1,2020.2.5,MacIntel,60
,,,,m,0.911885,0,192,192,192,1,flowers/images/64.jpg,flowers/images/303.jpg,193,ningtong,001,2020-11-19_13h42.46.876,test1,2020.2.5,MacIntel,60
,,,,z,0.87508,0,193,193,193,1,flowers/images/86.jpg,flowers/images/216.jpg,194,ningtong,001,2020-11-19_13h42.46.876,test1,2020.2.5,MacIntel,60
,,,,m,1.22404,0,194,194,194,1,flowers/images/260.jpg,flowers/images/361.jpg,195,ningtong,001,2020-11-19_13h42.46.876,test1,2020.2.5,MacIntel,60
,,,,z,1.801195,0,195,195,195,1,flowers/images/9.jpg,flowers/images/173.jpg,196,ningtong,001,2020-11-19_13h42.46.876,test1,2020.2.5,MacIntel,60
,,,,m,1.353605,0,196,196,196,1,flowers/images/22.jpg,flowers/images/41.jpg,197,ningtong,001,2020-11-19_13h42.46.876,test1,2020.2.5,MacIntel,60
,,,,m,3.5331,0,197,197,197,1,flowers/images/214.jpg,flowers/images/145.jpg,198,ningtong,001,2020-11-19_13h42.46.876,test1,2020.2.5,MacIntel,60
,,,,m,1.01583,0,198,198,198,1,flowers/images/72.jpg,flowers/images/308.jpg,199,ningtong,001,2020-11-19_13h42.46.876,test1,2020.2.5,MacIntel,60
,,,,z,4.54872,0,199,199,199,1,flowers/images/34.jpg,flowers/images/237.jpg,200,ningtong,001,2020-11-19_13h42.46.876,test1,2020.2.5,MacIntel,60
,,,,m,0.93399,0,200,200,200,1,flowers/images/166.jpg,flowers/images/169.jpg,201,ningtong,001,2020-11-19_13h42.46.876,test1,2020.2.5,MacIntel,60
,,,,m,0.734735,0,201,201,201,1,flowers/images/161.jpg,flowers/images/68.jpg,202,ningtong,001,2020-11-19_13h42.46.876,test1,2020.2.5,MacIntel,60
,,,,m,1.45631,0,202,202,202,1,flowers/images/319.jpg,flowers/images/341.jpg,203,ningtong,001,2020-11-19_13h42.46.876,test1,2020.2.5,MacIntel,60
,,,,z,4.08448,0,203,203,203,1,flowers/images/322.jpg,flowers/images/111.jpg,204,ningtong,001,2020-11-19_13h42.46.876,test1,2020.2.5,MacIntel,60
,,,,z,1.15099,0,204,204,204,1,flowers/images/2.jpg,flowers/images/95.jpg,205,ningtong,001,2020-11-19_13h42.46.876,test1,2020.2.5,MacIntel,60
,,,,z,1.21846,0,205,205,205,1,flowers/images/276.jpg,flowers/images/66.jpg,206,ningtong,001,2020-11-19_13h42.46.876,test1,2020.2.5,MacIntel,60
,,,,m,4.484805,0,206,206,206,1,flowers/images/116.jpg,flowers/images/206.jpg,207,ningtong,001,2020-11-19_13h42.46.876,test1,2020.2.5,MacIntel,60
,,,,m,1.02135,0,207,207,207,1,flowers/images/282.jpg,flowers/images/314.jpg,208,ningtong,001,2020-11-19_13h42.46.876,test1,2020.2.5,MacIntel,60
,,,,z,3.53497,0,208,208,208,1,flowers/images/261.jpg,flowers/images/260.jpg,209,ningtong,001,2020-11-19_13h42.46.876,test1,2020.2.5,MacIntel,60
,,,,m,1.32406,0,209,209,209,1,flowers/images/353.jpg,flowers/images/151.jpg,210,ningtong,001,2020-11-19_13h42.46.876,test1,2020.2.5,MacIntel,60
,,,,m,1.945935,0,210,210,210,1,flowers/images/216.jpg,flowers/images/156.jpg,211,ningtong,001,2020-11-19_13h42.46.876,test1,2020.2.5,MacIntel,60
,,,,z,1.144455,0,211,211,211,1,flowers/images/320.jpg,flowers/images/292.jpg,212,ningtong,001,2020-11-19_13h42.46.876,test1,2020.2.5,MacIntel,60
,,,,z,2.714965,0,212,212,212,1,flowers/images/149.jpg,flowers/images/279.jpg,213,ningtong,001,2020-11-19_13h42.46.876,test1,2020.2.5,MacIntel,60
,,,,m,1.30141,0,213,213,213,1,flowers/images/163.jpg,flowers/images/219.jpg,214,ningtong,001,2020-11-19_13h42.46.876,test1,2020.2.5,MacIntel,60
,,,,m,1.034195,0,214,214,214,1,flowers/images/10.jpg,flowers/images/232.jpg,215,ningtong,001,2020-11-19_13h42.46.876,test1,2020.2.5,MacIntel,60
,,,,m,1.3522,0,215,215,215,1,flowers/images/55.jpg,flowers/images/73.jpg,216,ningtong,001,2020-11-19_13h42.46.876,test1,2020.2.5,MacIntel,60
,,,,z,1.40164,0,216,216,216,1,flowers/images/123.jpg,flowers/images/189.jpg,217,ningtong,001,2020-11-19_13h42.46.876,test1,2020.2.5,MacIntel,60
,,,,m,1.28503,0,217,217,217,1,flowers/images/37.jpg,flowers/images/254.jpg,218,ningtong,001,2020-11-19_13h42.46.876,test1,2020.2.5,MacIntel,60
,,,,z,4.03472,0,218,218,218,1,flowers/images/230.jpg,flowers/images/166.jpg,219,ningtong,001,2020-11-19_13h42.46.876,test1,2020.2.5,MacIntel,60
,,,,z,2.179835,0,219,219,219,1,flowers/images/338.jpg,flowers/images/33.jpg,220,ningtong,001,2020-11-19_13h42.46.876,test1,2020.2.5,MacIntel,60
,,,,z,1.979025,0,220,220,220,1,flowers/images/337.jpg,flowers/images/193.jpg,221,ningtong,001,2020-11-19_13h42.46.876,test1,2020.2.5,MacIntel,60
,,,,m,2.70331,0,221,221,221,1,flowers/images/83.jpg,flowers/images/339.jpg,222,ningtong,001,2020-11-19_13h42.46.876,test1,2020.2.5,MacIntel,60
,,,,m,1.25785,0,222,222,222,1,flowers/images/190.jpg,flowers/images/99.jpg,223,ningtong,001,2020-11-19_13h42.46.876,test1,2020.2.5,MacIntel,60
,,,,m,0.93462,0,223,223,223,1,flowers/images/257.jpg,flowers/images/369.jpg,224,ningtong,001,2020-11-19_13h42.46.876,test1,2020.2.5,MacIntel,60
,,,,m,1.345165,0,224,224,224,1,flowers/images/280.jpg,flowers/images/355.jpg,225,ningtong,001,2020-11-19_13h42.46.876,test1,2020.2.5,MacIntel,60
,,,,m,1.71288,0,225,225,225,1,flowers/images/105.jpg,flowers/images/338.jpg,226,ningtong,001,2020-11-19_13h42.46.876,test1,2020.2.5,MacIntel,60
,,,,m,1.353895,0,226,226,226,1,flowers/images/202.jpg,flowers/images/3.jpg,227,ningtong,001,2020-11-19_13h42.46.876,test1,2020.2.5,MacIntel,60
,,,,m,1.24552,0,227,227,227,1,flowers/images/212.jpg,flowers/images/38.jpg,228,ningtong,001,2020-11-19_13h42.46.876,test1,2020.2.5,MacIntel,60
,,,,z,7.584225,0,228,228,228,1,flowers/images/152.jpg,flowers/images/0.jpg,229,ningtong,001,2020-11-19_13h42.46.876,test1,2020.2.5,MacIntel,60
,,,,z,2.7574,0,229,229,229,1,flowers/images/170.jpg,flowers/images/296.jpg,230,ningtong,001,2020-11-19_13h42.46.876,test1,2020.2.5,MacIntel,60
,,,,m,4.63461,0,230,230,230,1,flowers/images/74.jpg,flowers/images/80.jpg,231,ningtong,001,2020-11-19_13h42.46.876,test1,2020.2.5,MacIntel,60
,,,,z,2.290905,0,231,231,231,1,flowers/images/226.jpg,flowers/images/117.jpg,232,ningtong,001,2020-11-19_13h42.46.876,test1,2020.2.5,MacIntel,60
,,,,m,1.0519,0,232,232,232,1,flowers/images/1.jpg,flowers/images/19.jpg,233,ningtong,001,2020-11-19_13h42.46.876,test1,2020.2.5,MacIntel,60
,,,,m,1.21774,0,233,233,233,1,flowers/images/182.jpg,flowers/images/335.jpg,234,ningtong,001,2020-11-19_13h42.46.876,test1,2020.2.5,MacIntel,60
,,,,m,1.825755,0,234,234,234,1,flowers/images/245.jpg,flowers/images/62.jpg,235,ningtong,001,2020-11-19_13h42.46.876,test1,2020.2.5,MacIntel,60
,,,,m,1.862675,0,235,235,235,1,flowers/images/167.jpg,flowers/images/49.jpg,236,ningtong,001,2020-11-19_13h42.46.876,test1,2020.2.5,MacIntel,60
,,,,z,1.38483,0,236,236,236,1,flowers/images/38.jpg,flowers/images/250.jpg,237,ningtong,001,2020-11-19_13h42.46.876,test1,2020.2.5,MacIntel,60
,,,,m,2.2677,0,237,237,237,1,flowers/images/124.jpg,flowers/images/324.jpg,238,ningtong,001,2020-11-19_13h42.46.876,test1,2020.2.5,MacIntel,60
,,,,m,0.974455,0,238,238,238,1,flowers/images/92.jpg,flowers/images/13.jpg,239,ningtong,001,2020-11-19_13h42.46.876,test1,2020.2.5,MacIntel,60
,,,,m,1.351115,0,239,239,239,1,flowers/images/120.jpg,flowers/images/374.jpg,240,ningtong,001,2020-11-19_13h42.46.876,test1,2020.2.5,MacIntel,60
,,,,z,1.415815,0,240,240,240,1,flowers/images/350.jpg,flowers/images/100.jpg,241,ningtong,001,2020-11-19_13h42.46.876,test1,2020.2.5,MacIntel,60
,,,,m,1.36604,0,241,241,241,1,flowers/images/68.jpg,flowers/images/236.jpg,242,ningtong,001,2020-11-19_13h42.46.876,test1,2020.2.5,MacIntel,60
,,,,z,1.651785,0,242,242,242,1,flowers/images/5.jpg,flowers/images/340.jpg,243,ningtong,001,2020-11-19_13h42.46.876,test1,2020.2.5,MacIntel,60
,,,,m,0.968755,0,243,243,243,1,flowers/images/99.jpg,flowers/images/313.jpg,244,ningtong,001,2020-11-19_13h42.46.876,test1,2020.2.5,MacIntel,60
,,,,z,1.484395,0,244,244,244,1,flowers/images/229.jpg,flowers/images/177.jpg,245,ningtong,001,2020-11-19_13h42.46.876,test1,2020.2.5,MacIntel,60
,,,,z,2.21739,0,245,245,245,1,flowers/images/361.jpg,flowers/images/383.jpg,246,ningtong,001,2020-11-19_13h42.46.876,test1,2020.2.5,MacIntel,60
,,,,m,7.05425,0,246,246,246,1,flowers/images/129.jpg,flowers/images/398.jpg,247,ningtong,001,2020-11-19_13h42.46.876,test1,2020.2.5,MacIntel,60
,,,,z,1.5182,0,247,247,247,1,flowers/images/228.jpg,flowers/images/159.jpg,248,ningtong,001,2020-11-19_13h42.46.876,test1,2020.2.5,MacIntel,60
,,,,m,2.091505,0,248,248,248,1,flowers/images/65.jpg,flowers/images/312.jpg,249,ningtong,001,2020-11-19_13h42.46.876,test1,2020.2.5,MacIntel,60
,,,,z,3.3917,0,249,249,249,1,flowers/images/73.jpg,flowers/images/163.jpg,250,ningtong,001,2020-11-19_13h42.46.876,test1,2020.2.5,MacIntel,60
,,,,m,1.88792,0,250,250,250,1,flowers/images/224.jpg,flowers/images/278.jpg,251,ningtong,001,2020-11-19_13h42.46.876,test1,2020.2.5,MacIntel,60
,,,,m,2.541865,0,251,251,251,1,flowers/images/312.jpg,flowers/images/185.jpg,252,ningtong,001,2020-11-19_13h42.46.876,test1,2020.2.5,MacIntel,60
,,,,m,1.63364,0,252,252,252,1,flowers/images/256.jpg,flowers/images/112.jpg,253,ningtong,001,2020-11-19_13h42.46.876,test1,2020.2.5,MacIntel,60
,,,,m,1.143895,0,253,253,253,1,flowers/images/26.jpg,flowers/images/261.jpg,254,ningtong,001,2020-11-19_13h42.46.876,test1,2020.2.5,MacIntel,60
,,,,m,1.80872,0,254,254,254,1,flowers/images/51.jpg,flowers/images/106.jpg,255,ningtong,001,2020-11-19_13h42.46.876,test1,2020.2.5,MacIntel,60
,,,,z,0.8636,0,255,255,255,1,flowers/images/371.jpg,flowers/images/160.jpg,256,ningtong,001,2020-11-19_13h42.46.876,test1,2020.2.5,MacIntel,60
,,,,m,1.33841,0,256,256,256,1,flowers/images/59.jpg,flowers/images/257.jpg,257,ningtong,001,2020-11-19_13h42.46.876,test1,2020.2.5,MacIntel,60
,,,,z,1.718915,0,257,257,257,1,flowers/images/347.jpg,flowers/images/190.jpg,258,ningtong,001,2020-11-19_13h42.46.876,test1,2020.2.5,MacIntel,60
,,,,m,1.101285,0,258,258,258,1,flowers/images/8.jpg,flowers/images/209.jpg,259,ningtong,001,2020-11-19_13h42.46.876,test1,2020.2.5,MacIntel,60
,,,,z,1.20112,0,259,259,259,1,flowers/images/278.jpg,flowers/images/31.jpg,260,ningtong,001,2020-11-19_13h42.46.876,test1,2020.2.5,MacIntel,60
,,,,z,1.95223,0,260,260,260,1,flowers/images/262.jpg,flowers/images/325.jpg,261,ningtong,001,2020-11-19_13h42.46.876,test1,2020.2.5,MacIntel,60
,,,,z,6.823685,0,261,261,261,1,flowers/images/273.jpg,flowers/images/83.jpg,262,ningtong,001,2020-11-19_13h42.46.876,test1,2020.2.5,MacIntel,60
,,,,z,1.68525,0,262,262,262,1,flowers/images/52.jpg,flowers/images/17.jpg,263,ningtong,001,2020-11-19_13h42.46.876,test1,2020.2.5,MacIntel,60
,,,,z,2.850285,0,263,263,263,1,flowers/images/243.jpg,flowers/images/27.jpg,264,ningtong,001,2020-11-19_13h42.46.876,test1,2020.2.5,MacIntel,60
,,,,z,4.08689,0,264,264,264,1,flowers/images/175.jpg,flowers/images/192.jpg,265,ningtong,001,2020-11-19_13h42.46.876,test1,2020.2.5,MacIntel,60
,,,,z,1.30145,0,265,265,265,1,flowers/images/53.jpg,flowers/images/199.jpg,266,ningtong,001,2020-11-19_13h42.46.876,test1,2020.2.5,MacIntel,60
,,,,z,0.700995,0,266,266,266,1,flowers/images/316.jpg,flowers/images/381.jpg,267,ningtong,001,2020-11-19_13h42.46.876,test1,2020.2.5,MacIntel,60
,,,,z,0.857455,0,267,267,267,1,flowers/images/249.jpg,flowers/images/213.jpg,268,ningtong,001,2020-11-19_13h42.46.876,test1,2020.2.5,MacIntel,60
,,,,z,0.90081,0,268,268,268,1,flowers/images/70.jpg,flowers/images/60.jpg,269,ningtong,001,2020-11-19_13h42.46.876,test1,2020.2.5,MacIntel,60
,,,,m,1.61854,0,269,269,269,1,flowers/images/300.jpg,flowers/images/386.jpg,270,ningtong,001,2020-11-19_13h42.46.876,test1,2020.2.5,MacIntel,60
,,,,z,1.84487,0,270,270,270,1,flowers/images/162.jpg,flowers/images/149.jpg,271,ningtong,001,2020-11-19_13h42.46.876,test1,2020.2.5,MacIntel,60
,,,,m,1.918,0,271,271,271,1,flowers/images/146.jpg,flowers/images/336.jpg,272,ningtong,001,2020-11-19_13h42.46.876,test1,2020.2.5,MacIntel,60
,,,,z,2.012405,0,272,272,272,1,flowers/images/115.jpg,flowers/images/120.jpg,273,ningtong,001,2020-11-19_13h42.46.876,test1,2020.2.5,MacIntel,60
,,,,z,1.32028,0,273,273,273,1,flowers/images/311.jpg,flowers/images/123.jpg,274,ningtong,001,2020-11-19_13h42.46.876,test1,2020.2.5,MacIntel,60
,,,,z,0.97331,0,274,274,274,1,flowers/images/33.jpg,flowers/images/146.jpg,275,ningtong,001,2020-11-19_13h42.46.876,test1,2020.2.5,MacIntel,60
,,,,z,3.55264,0,275,275,275,1,flowers/images/78.jpg,flowers/images/352.jpg,276,ningtong,001,2020-11-19_13h42.46.876,test1,2020.2.5,MacIntel,60
,,,,z,1.50041,0,276,276,276,1,flowers/images/43.jpg,flowers/images/50.jpg,277,ningtong,001,2020-11-19_13h42.46.876,test1,2020.2.5,MacIntel,60
,,,,z,1.76947,0,277,277,277,1,flowers/images/373.jpg,flowers/images/78.jpg,278,ningtong,001,2020-11-19_13h42.46.876,test1,2020.2.5,MacIntel,60
,,,,z,1.668875,0,278,278,278,1,flowers/images/233.jpg,flowers/images/134.jpg,279,ningtong,001,2020-11-19_13h42.46.876,test1,2020.2.5,MacIntel,60
,,,,z,1.35442,0,279,279,279,1,flowers/images/386.jpg,flowers/images/390.jpg,280,ningtong,001,2020-11-19_13h42.46.876,test1,2020.2.5,MacIntel,60
,,,,z,0.775005,0,280,280,280,1,flowers/images/205.jpg,flowers/images/388.jpg,281,ningtong,001,2020-11-19_13h42.46.876,test1,2020.2.5,MacIntel,60
,,,,m,1.03349,0,281,281,281,1,flowers/images/130.jpg,flowers/images/48.jpg,282,ningtong,001,2020-11-19_13h42.46.876,test1,2020.2.5,MacIntel,60
,,,,z,0.935235,0,282,282,282,1,flowers/images/187.jpg,flowers/images/253.jpg,283,ningtong,001,2020-11-19_13h42.46.876,test1,2020.2.5,MacIntel,60
,,,,z,0.894475,0,283,283,283,1,flowers/images/232.jpg,flowers/images/141.jpg,284,ningtong,001,2020-11-19_13h42.46.876,test1,2020.2.5,MacIntel,60
,,,,m,1.19083,0,284,284,284,1,flowers/images/253.jpg,flowers/images/71.jpg,285,ningtong,001,2020-11-19_13h42.46.876,test1,2020.2.5,MacIntel,60
,,,,z,0.808535,0,285,285,285,1,flowers/images/332.jpg,flowers/images/322.jpg,286,ningtong,001,2020-11-19_13h42.46.876,test1,2020.2.5,MacIntel,60
,,,,z,0.870745,0,286,286,286,1,flowers/images/103.jpg,flowers/images/182.jpg,287,ningtong,001,2020-11-19_13h42.46.876,test1,2020.2.5,MacIntel,60
,,,,m,1.539145,0,287,287,287,1,flowers/images/271.jpg,flowers/images/103.jpg,288,ningtong,001,2020-11-19_13h42.46.876,test1,2020.2.5,MacIntel,60
,,,,z,1.789695,0,288,288,288,1,flowers/images/63.jpg,flowers/images/227.jpg,289,ningtong,001,2020-11-19_13h42.46.876,test1,2020.2.5,MacIntel,60
,,,,m,3.500825,0,289,289,289,1,flowers/images/382.jpg,flowers/images/359.jpg,290,ningtong,001,2020-11-19_13h42.46.876,test1,2020.2.5,MacIntel,60
,,,,z,0.90488,0,290,290,290,1,flowers/images/252.jpg,flowers/images/87.jpg,291,ningtong,001,2020-11-19_13h42.46.876,test1,2020.2.5,MacIntel,60
,,,,m,1.940105,0,291,291,291,1,flowers/images/101.jpg,flowers/images/196.jpg,292,ningtong,001,2020-11-19_13h42.46.876,test1,2020.2.5,MacIntel,60
,,,,z,0.95107,0,292,292,292,1,flowers/images/104.jpg,flowers/images/270.jpg,293,ningtong,001,2020-11-19_13h42.46.876,test1,2020.2.5,MacIntel,60
,,,,z,3.21224,0,293,293,293,1,flowers/images/270.jpg,flowers/images/108.jpg,294,ningtong,001,2020-11-19_13h42.46.876,test1,2020.2.5,MacIntel,60
,,,,m,1.240805,0,294,294,294,1,flowers/images/0.jpg,flowers/images/143.jpg,295,ningtong,001,2020-11-19_13h42.46.876,test1,2020.2.5,MacIntel,60
,,,,m,0.868115,0,295,295,295,1,flowers/images/348.jpg,flowers/images/276.jpg,296,ningtong,001,2020-11-19_13h42.46.876,test1,2020.2.5,MacIntel,60
,,,,m,1.968555,0,296,296,296,1,flowers/images/251.jpg,flowers/images/55.jpg,297,ningtong,001,2020-11-19_13h42.46.876,test1,2020.2.5,MacIntel,60
,,,,m,2.807455,0,297,297,297,1,flowers/images/119.jpg,flowers/images/43.jpg,298,ningtong,001,2020-11-19_13h42.46.876,test1,2020.2.5,MacIntel,60
,,,,z,1.172295,0,298,298,298,1,flowers/images/158.jpg,flowers/images/46.jpg,299,ningtong,001,2020-11-19_13h42.46.876,test1,2020.2.5,MacIntel,60
,,,,m,1.081165,0,299,299,299,1,flowers/images/297.jpg,flowers/images/205.jpg,300,ningtong,001,2020-11-19_13h42.46.876,test1,2020.2.5,MacIntel,60
,,,,z,1.20763,0,300,300,300,1,flowers/images/25.jpg,flowers/images/54.jpg,301,ningtong,001,2020-11-19_13h42.46.876,test1,2020.2.5,MacIntel,60
,,,,z,1.21724,0,301,301,301,1,flowers/images/67.jpg,flowers/images/331.jpg,302,ningtong,001,2020-11-19_13h42.46.876,test1,2020.2.5,MacIntel,60
,,,,z,1.93418,0,302,302,302,1,flowers/images/366.jpg,flowers/images/372.jpg,303,ningtong,001,2020-11-19_13h42.46.876,test1,2020.2.5,MacIntel,60
,,,,m,4.795895,0,303,303,303,1,flowers/images/4.jpg,flowers/images/220.jpg,304,ningtong,001,2020-11-19_13h42.46.876,test1,2020.2.5,MacIntel,60
,,,,z,1.20733,0,304,304,304,1,flowers/images/90.jpg,flowers/images/148.jpg,305,ningtong,001,2020-11-19_13h42.46.876,test1,2020.2.5,MacIntel,60
,,,,m,1.202505,0,305,305,305,1,flowers/images/198.jpg,flowers/images/380.jpg,306,ningtong,001,2020-11-19_13h42.46.876,test1,2020.2.5,MacIntel,60
,,,,m,0.87033,0,306,306,306,1,flowers/images/375.jpg,flowers/images/362.jpg,307,ningtong,001,2020-11-19_13h42.46.876,test1,2020.2.5,MacIntel,60
,,,,z,0.71852,0,307,307,307,1,flowers/images/372.jpg,flowers/images/98.jpg,308,ningtong,001,2020-11-19_13h42.46.876,test1,2020.2.5,MacIntel,60
,,,,z,0.78465,0,308,308,308,1,flowers/images/364.jpg,flowers/images/12.jpg,309,ningtong,001,2020-11-19_13h42.46.876,test1,2020.2.5,MacIntel,60
,,,,m,1.12208,0,309,309,309,1,flowers/images/176.jpg,flowers/images/316.jpg,310,ningtong,001,2020-11-19_13h42.46.876,test1,2020.2.5,MacIntel,60
,,,,z,0.734125,0,310,310,310,1,flowers/images/48.jpg,flowers/images/75.jpg,311,ningtong,001,2020-11-19_13h42.46.876,test1,2020.2.5,MacIntel,60
,,,,z,1.275105,0,311,311,311,1,flowers/images/188.jpg,flowers/images/8.jpg,312,ningtong,001,2020-11-19_13h42.46.876,test1,2020.2.5,MacIntel,60
,,,,z,1.184905,0,312,312,312,1,flowers/images/288.jpg,flowers/images/251.jpg,313,ningtong,001,2020-11-19_13h42.46.876,test1,2020.2.5,MacIntel,60
,,,,z,0.80788,0,313,313,313,1,flowers/images/349.jpg,flowers/images/282.jpg,314,ningtong,001,2020-11-19_13h42.46.876,test1,2020.2.5,MacIntel,60
,,,,z,0.801415,0,314,314,314,1,flowers/images/135.jpg,flowers/images/172.jpg,315,ningtong,001,2020-11-19_13h42.46.876,test1,2020.2.5,MacIntel,60
,,,,z,1.85462,0,315,315,315,1,flowers/images/283.jpg,flowers/images/139.jpg,316,ningtong,001,2020-11-19_13h42.46.876,test1,2020.2.5,MacIntel,60
,,,,z,0.84377,0,316,316,316,1,flowers/images/301.jpg,flowers/images/102.jpg,317,ningtong,001,2020-11-19_13h42.46.876,test1,2020.2.5,MacIntel,60
,,,,m,1.235025,0,317,317,317,1,flowers/images/164.jpg,flowers/images/392.jpg,318,ningtong,001,2020-11-19_13h42.46.876,test1,2020.2.5,MacIntel,60
,,,,m,1.034345,0,318,318,318,1,flowers/images/385.jpg,flowers/images/244.jpg,319,ningtong,001,2020-11-19_13h42.46.876,test1,2020.2.5,MacIntel,60
,,,,m,1.300945,0,319,319,319,1,flowers/images/137.jpg,flowers/images/104.jpg,320,ningtong,001,2020-11-19_13h42.46.876,test1,2020.2.5,MacIntel,60
,,,,z,2.1441,0,320,320,320,1,flowers/images/23.jpg,flowers/images/157.jpg,321,ningtong,001,2020-11-19_13h42.46.876,test1,2020.2.5,MacIntel,60
,,,,z,0.80219,0,321,321,321,1,flowers/images/310.jpg,flowers/images/238.jpg,322,ningtong,001,2020-11-19_13h42.46.876,test1,2020.2.5,MacIntel,60
,,,,m,1.00453,0,322,322,322,1,flowers/images/215.jpg,flowers/images/222.jpg,323,ningtong,001,2020-11-19_13h42.46.876,test1,2020.2.5,MacIntel,60
,,,,z,3.220975,0,323,323,323,1,flowers/images/244.jpg,flowers/images/274.jpg,324,ningtong,001,2020-11-19_13h42.46.876,test1,2020.2.5,MacIntel,60
,,,,z,1.093725,0,324,324,324,1,flowers/images/313.jpg,flowers/images/329.jpg,325,ningtong,001,2020-11-19_13h42.46.876,test1,2020.2.5,MacIntel,60
,,,,m,1.224955,0,325,325,325,1,flowers/images/207.jpg,flowers/images/188.jpg,326,ningtong,001,2020-11-19_13h42.46.876,test1,2020.2.5,MacIntel,60
,,,,z,3.84598,0,326,326,326,1,flowers/images/265.jpg,flowers/images/351.jpg,327,ningtong,001,2020-11-19_13h42.46.876,test1,2020.2.5,MacIntel,60
,,,,z,1.024685,0,327,327,327,1,flowers/images/248.jpg,flowers/images/239.jpg,328,ningtong,001,2020-11-19_13h42.46.876,test1,2020.2.5,MacIntel,60
,,,,z,1.9595,0,328,328,328,1,flowers/images/204.jpg,flowers/images/225.jpg,329,ningtong,001,2020-11-19_13h42.46.876,test1,2020.2.5,MacIntel,60
,,,,z,1.983795,0,329,329,329,1,flowers/images/13.jpg,flowers/images/119.jpg,330,ningtong,001,2020-11-19_13h42.46.876,test1,2020.2.5,MacIntel,60
,,,,z,1.26795,0,330,330,330,1,flowers/images/370.jpg,flowers/images/39.jpg,331,ningtong,001,2020-11-19_13h42.46.876,test1,2020.2.5,MacIntel,60
,,,,m,0.941525,0,331,331,331,1,flowers/images/397.jpg,flowers/images/69.jpg,332,ningtong,001,2020-11-19_13h42.46.876,test1,2020.2.5,MacIntel,60
,,,,m,0.78999,0,332,332,332,1,flowers/images/393.jpg,flowers/images/399.jpg,333,ningtong,001,2020-11-19_13h42.46.876,test1,2020.2.5,MacIntel,60
,,,,z,1.060485,0,333,333,333,1,flowers/images/363.jpg,flowers/images/74.jpg,334,ningtong,001,2020-11-19_13h42.46.876,test1,2020.2.5,MacIntel,60
,,,,z,0.66708,0,334,334,334,1,flowers/images/254.jpg,flowers/images/174.jpg,335,ningtong,001,2020-11-19_13h42.46.876,test1,2020.2.5,MacIntel,60
,,,,m,1.16766,0,335,335,335,1,flowers/images/139.jpg,flowers/images/70.jpg,336,ningtong,001,2020-11-19_13h42.46.876,test1,2020.2.5,MacIntel,60
,,,,m,1.0013,0,336,336,336,1,flowers/images/95.jpg,flowers/images/315.jpg,337,ningtong,001,2020-11-19_13h42.46.876,test1,2020.2.5,MacIntel,60
,,,,m,1.00317,0,337,337,337,1,flowers/images/294.jpg,flowers/images/334.jpg,338,ningtong,001,2020-11-19_13h42.46.876,test1,2020.2.5,MacIntel,60
,,,,z,0.870075,0,338,338,338,1,flowers/images/174.jpg,flowers/images/171.jpg,339,ningtong,001,2020-11-19_13h42.46.876,test1,2020.2.5,MacIntel,60
,,,,m,1.427995,0,339,339,339,1,flowers/images/57.jpg,flowers/images/326.jpg,340,ningtong,001,2020-11-19_13h42.46.876,test1,2020.2.5,MacIntel,60
,,,,z,1.41842,0,340,340,340,1,flowers/images/246.jpg,flowers/images/82.jpg,341,ningtong,001,2020-11-19_13h42.46.876,test1,2020.2.5,MacIntel,60
,,,,m,0.935045,0,341,341,341,1,flowers/images/16.jpg,flowers/images/45.jpg,342,ningtong,001,2020-11-19_13h42.46.876,test1,2020.2.5,MacIntel,60
,,,,z,1.28454,0,342,342,342,1,flowers/images/380.jpg,flowers/images/150.jpg,343,ningtong,001,2020-11-19_13h42.46.876,test1,2020.2.5,MacIntel,60
,,,,m,1.15295,0,343,343,343,1,flowers/images/109.jpg,flowers/images/350.jpg,344,ningtong,001,2020-11-19_13h42.46.876,test1,2020.2.5,MacIntel,60
,,,,m,3.61755,0,344,344,344,1,flowers/images/223.jpg,flowers/images/366.jpg,345,ningtong,001,2020-11-19_13h42.46.876,test1,2020.2.5,MacIntel,60
,,,,m,1.875725,0,345,345,345,1,flowers/images/60.jpg,flowers/images/194.jpg,346,ningtong,001,2020-11-19_13h42.46.876,test1,2020.2.5,MacIntel,60
,,,,m,4.494455,0,346,346,346,1,flowers/images/268.jpg,flowers/images/332.jpg,347,ningtong,001,2020-11-19_13h42.46.876,test1,2020.2.5,MacIntel,60
,,,,z,2.209625,0,347,347,347,1,flowers/images/388.jpg,flowers/images/319.jpg,348,ningtong,001,2020-11-19_13h42.46.876,test1,2020.2.5,MacIntel,60
,,,,m,1.552455,0,348,348,348,1,flowers/images/356.jpg,flowers/images/337.jpg,349,ningtong,001,2020-11-19_13h42.46.876,test1,2020.2.5,MacIntel,60
,,,,m,3.301015,0,349,349,349,1,flowers/images/384.jpg,flowers/images/344.jpg,350,ningtong,001,2020-11-19_13h42.46.876,test1,2020.2.5,MacIntel,60
,,,,m,1.94558,0,350,350,350,1,flowers/images/333.jpg,flowers/images/346.jpg,351,ningtong,001,2020-11-19_13h42.46.876,test1,2020.2.5,MacIntel,60
,,,,m,0.891365,0,351,351,351,1,flowers/images/24.jpg,flowers/images/116.jpg,352,ningtong,001,2020-11-19_13h42.46.876,test1,2020.2.5,MacIntel,60
,,,,z,1.366785,0,352,352,352,1,flowers/images/220.jpg,flowers/images/235.jpg,353,ningtong,001,2020-11-19_13h42.46.876,test1,2020.2.5,MacIntel,60
,,,,z,1.440745,0,353,353,353,1,flowers/images/269.jpg,flowers/images/198.jpg,354,ningtong,001,2020-11-19_13h42.46.876,test1,2020.2.5,MacIntel,60
,,,,z,1.574985,0,354,354,354,1,flowers/images/107.jpg,flowers/images/1.jpg,355,ningtong,001,2020-11-19_13h42.46.876,test1,2020.2.5,MacIntel,60
,,,,z,1.35689,0,355,355,355,1,flowers/images/314.jpg,flowers/images/147.jpg,356,ningtong,001,2020-11-19_13h42.46.876,test1,2020.2.5,MacIntel,60
,,,,m,1.231395,0,356,356,356,1,flowers/images/117.jpg,flowers/images/258.jpg,357,ningtong,001,2020-11-19_13h42.46.876,test1,2020.2.5,MacIntel,60
,,,,z,2.53458,0,357,357,357,1,flowers/images/41.jpg,flowers/images/214.jpg,358,ningtong,001,2020-11-19_13h42.46.876,test1,2020.2.5,MacIntel,60
,,,,z,1.31671,0,358,358,358,1,flowers/images/306.jpg,flowers/images/118.jpg,359,ningtong,001,2020-11-19_13h42.46.876,test1,2020.2.5,MacIntel,60
,,,,z,0.9047,0,359,359,359,1,flowers/images/299.jpg,flowers/images/40.jpg,360,ningtong,001,2020-11-19_13h42.46.876,test1,2020.2.5,MacIntel,60
,,,,m,1.05552,0,360,360,360,1,flowers/images/50.jpg,flowers/images/291.jpg,361,ningtong,001,2020-11-19_13h42.46.876,test1,2020.2.5,MacIntel,60
,,,,z,0.78031,0,361,361,361,1,flowers/images/238.jpg,flowers/images/129.jpg,362,ningtong,001,2020-11-19_13h42.46.876,test1,2020.2.5,MacIntel,60
,,,,z,3.30035,0,362,362,362,1,flowers/images/30.jpg,flowers/images/136.jpg,363,ningtong,001,2020-11-19_13h42.46.876,test1,2020.2.5,MacIntel,60
,,,,m,1.491825,0,363,363,363,1,flowers/images/211.jpg,flowers/images/306.jpg,364,ningtong,001,2020-11-19_13h42.46.876,test1,2020.2.5,MacIntel,60
,,,,z,0.767965,0,364,364,364,1,flowers/images/227.jpg,flowers/images/57.jpg,365,ningtong,001,2020-11-19_13h42.46.876,test1,2020.2.5,MacIntel,60
,,,,z,2.339955,0,365,365,365,1,flowers/images/242.jpg,flowers/images/61.jpg,366,ningtong,001,2020-11-19_13h42.46.876,test1,2020.2.5,MacIntel,60
,,,,z,0.65968,0,366,366,366,1,flowers/images/387.jpg,flowers/images/263.jpg,367,ningtong,001,2020-11-19_13h42.46.876,test1,2020.2.5,MacIntel,60
,,,,m,1.459455,0,367,367,367,1,flowers/images/193.jpg,flowers/images/367.jpg,368,ningtong,001,2020-11-19_13h42.46.876,test1,2020.2.5,MacIntel,60
,,,,m,0.89201,0,368,368,368,1,flowers/images/231.jpg,flowers/images/18.jpg,369,ningtong,001,2020-11-19_13h42.46.876,test1,2020.2.5,MacIntel,60
,,,,m,1.367805,0,369,369,369,1,flowers/images/154.jpg,flowers/images/32.jpg,370,ningtong,001,2020-11-19_13h42.46.876,test1,2020.2.5,MacIntel,60
,,,,m,0.80752,0,370,370,370,1,flowers/images/79.jpg,flowers/images/301.jpg,371,ningtong,001,2020-11-19_13h42.46.876,test1,2020.2.5,MacIntel,60
,,,,m,1.90135,0,371,371,371,1,flowers/images/263.jpg,flowers/images/210.jpg,372,ningtong,001,2020-11-19_13h42.46.876,test1,2020.2.5,MacIntel,60
,,,,z,1.769355,0,372,372,372,1,flowers/images/383.jpg,flowers/images/354.jpg,373,ningtong,001,2020-11-19_13h42.46.876,test1,2020.2.5,MacIntel,60
,,,,z,0.753985,0,373,373,373,1,flowers/images/290.jpg,flowers/images/212.jpg,374,ningtong,001,2020-11-19_13h42.46.876,test1,2020.2.5,MacIntel,60
,,,,m,1.321685,0,374,374,374,1,flowers/images/206.jpg,flowers/images/397.jpg,375,ningtong,001,2020-11-19_13h42.46.876,test1,2020.2.5,MacIntel,60
,,,,z,2.72119,0,375,375,375,1,flowers/images/317.jpg,flowers/images/297.jpg,376,ningtong,001,2020-11-19_13h42.46.876,test1,2020.2.5,MacIntel,60
,,,,m,1.65177,0,376,376,376,1,flowers/images/329.jpg,flowers/images/255.jpg,377,ningtong,001,2020-11-19_13h42.46.876,test1,2020.2.5,MacIntel,60
,,,,m,3.867875,0,377,377,377,1,flowers/images/225.jpg,flowers/images/91.jpg,378,ningtong,001,2020-11-19_13h42.46.876,test1,2020.2.5,MacIntel,60
,,,,m,1.406835,0,378,378,378,1,flowers/images/11.jpg,flowers/images/256.jpg,379,ningtong,001,2020-11-19_13h42.46.876,test1,2020.2.5,MacIntel,60
,,,,z,1.652035,0,379,379,379,1,flowers/images/234.jpg,flowers/images/64.jpg,380,ningtong,001,2020-11-19_13h42.46.876,test1,2020.2.5,MacIntel,60
,,,,z,3.041575,0,380,380,380,1,flowers/images/342.jpg,flowers/images/26.jpg,381,ningtong,001,2020-11-19_13h42.46.876,test1,2020.2.5,MacIntel,60
,,,,z,1.468285,0,381,381,381,1,flowers/images/391.jpg,flowers/images/286.jpg,382,ningtong,001,2020-11-19_13h42.46.876,test1,2020.2.5,MacIntel,60
,,,,m,0.90796,0,382,382,382,1,flowers/images/221.jpg,flowers/images/268.jpg,383,ningtong,001,2020-11-19_13h42.46.876,test1,2020.2.5,MacIntel,60
,,,,m,0.8557,0,383,383,383,1,flowers/images/210.jpg,flowers/images/84.jpg,384,ningtong,001,2020-11-19_13h42.46.876,test1,2020.2.5,MacIntel,60
,,,,m,0.976185,0,384,384,384,1,flowers/images/138.jpg,flowers/images/77.jpg,385,ningtong,001,2020-11-19_13h42.46.876,test1,2020.2.5,MacIntel,60
,,,,m,0.932435,0,385,385,385,1,flowers/images/315.jpg,flowers/images/269.jpg,386,ningtong,001,2020-11-19_13h42.46.876,test1,2020.2.5,MacIntel,60
,,,,z,0.91993,0,386,386,386,1,flowers/images/308.jpg,flowers/images/265.jpg,387,ningtong,001,2020-11-19_13h42.46.876,test1,2020.2.5,MacIntel,60
,,,,m,1.60314,0,387,387,387,1,flowers/images/88.jpg,flowers/images/56.jpg,388,ningtong,001,2020-11-19_13h42.46.876,test1,2020.2.5,MacIntel,60
,,,,m,1.00708,0,388,388,388,1,flowers/images/102.jpg,flowers/images/126.jpg,389,ningtong,001,2020-11-19_13h42.46.876,test1,2020.2.5,MacIntel,60
,,,,m,1.503665,0,389,389,389,1,flowers/images/132.jpg,flowers/images/389.jpg,390,ningtong,001,2020-11-19_13h42.46.876,test1,2020.2.5,MacIntel,60
,,,,m,1.073455,0,390,390,390,1,flowers/images/186.jpg,flowers/images/144.jpg,391,ningtong,001,2020-11-19_13h42.46.876,test1,2020.2.5,MacIntel,60
,,,,m,1.268385,0,391,391,391,1,flowers/images/284.jpg,flowers/images/92.jpg,392,ningtong,001,2020-11-19_13h42.46.876,test1,2020.2.5,MacIntel,60
,,,,z,2.380945,0,392,392,392,1,flowers/images/396.jpg,flowers/images/24.jpg,393,ningtong,001,2020-11-19_13h42.46.876,test1,2020.2.5,MacIntel,60
,,,,m,1.95116,0,393,393,393,1,flowers/images/374.jpg,flowers/images/287.jpg,394,ningtong,001,2020-11-19_13h42.46.876,test1,2020.2.5,MacIntel,60
,,,,m,1.04018,0,394,394,394,1,flowers/images/140.jpg,flowers/images/267.jpg,395,ningtong,001,2020-11-19_13h42.46.876,test1,2020.2.5,MacIntel,60
,,,,m,0.84027,0,395,395,395,1,flowers/images/267.jpg,flowers/images/343.jpg,396,ningtong,001,2020-11-19_13h42.46.876,test1,2020.2.5,MacIntel,60
,,,,m,0.91847,0,396,396,396,1,flowers/images/286.jpg,flowers/images/35.jpg,397,ningtong,001,2020-11-19_13h42.46.876,test1,2020.2.5,MacIntel,60
,,,,z,3.311075,0,397,397,397,1,flowers/images/143.jpg,flowers/images/391.jpg,398,ningtong,001,2020-11-19_13h42.46.876,test1,2020.2.5,MacIntel,60
,,,,z,2.30227,0,398,398,398,1,flowers/images/196.jpg,flowers/images/155.jpg,399,ningtong,001,2020-11-19_13h42.46.876,test1,2020.2.5,MacIntel,60
,,,,m,0.97443,0,399,399,399,1,flowers/images/281.jpg,flowers/images/394.jpg,400,ningtong,001,2020-11-19_13h42.46.876,test1,2020.2.5,MacIntel,60
