key_resp.keys,key_resp.rt,key_resp_3.keys,key_resp_3.rt,key_resp_2.keys,key_resp_2.rt,trials.thisRepN,trials.thisTrialN,trials.thisN,trials.thisIndex,trials.ran,image_left,image_right,trial_num,participant,session,date,expName,psychopyVersion,OS,frameRate,key_resp_4.keys,key_resp_4.rt,trials_2.thisRepN,trials_2.thisTrialN,trials_2.thisN,trials_2.thisIndex,trials_2.ran
space,14.455925,space,20.49758,m,11.87879,0,0,0,0,1,flowers/images/125.jpg,flowers/images/165.jpg,1,Reighlyn,001,2020-11-20_14h23.07.160,test1,2020.2.5,MacIntel,60,,,,,,,
,,,,z,5.99938,0,1,1,1,1,flowers/images/168.jpg,flowers/images/195.jpg,2,Reighlyn,001,2020-11-20_14h23.07.160,test1,2020.2.5,MacIntel,60,,,,,,,
,,,,z,4.66064,0,2,2,2,1,flowers/images/114.jpg,flowers/images/131.jpg,3,Reighlyn,001,2020-11-20_14h23.07.160,test1,2020.2.5,MacIntel,60,,,,,,,
,,,,z,5.66961,0,3,3,3,1,flowers/images/110.jpg,flowers/images/241.jpg,4,Reighlyn,001,2020-11-20_14h23.07.160,test1,2020.2.5,MacIntel,60,,,,,,,
,,,,z,2.28635,0,4,4,4,1,flowers/images/157.jpg,flowers/images/170.jpg,5,Reighlyn,001,2020-11-20_14h23.07.160,test1,2020.2.5,MacIntel,60,,,,,,,
,,,,m,4.827465,0,5,5,5,1,flowers/images/291.jpg,flowers/images/302.jpg,6,Reighlyn,001,2020-11-20_14h23.07.160,test1,2020.2.5,MacIntel,60,,,,,,,
,,,,z,2.03008,0,6,6,6,1,flowers/images/335.jpg,flowers/images/272.jpg,7,Reighlyn,001,2020-11-20_14h23.07.160,test1,2020.2.5,MacIntel,60,,,,,,,
,,,,z,2.551155,0,7,7,7,1,flowers/images/122.jpg,flowers/images/72.jpg,8,Reighlyn,001,2020-11-20_14h23.07.160,test1,2020.2.5,MacIntel,60,,,,,,,
,,,,z,3.069335,0,8,8,8,1,flowers/images/240.jpg,flowers/images/67.jpg,9,Reighlyn,001,2020-11-20_14h23.07.160,test1,2020.2.5,MacIntel,60,,,,,,,
,,,,m,2.461145,0,9,9,9,1,flowers/images/324.jpg,flowers/images/180.jpg,10,Reighlyn,001,2020-11-20_14h23.07.160,test1,2020.2.5,MacIntel,60,,,,,,,
,,,,m,3.07825,0,10,10,10,1,flowers/images/148.jpg,flowers/images/275.jpg,11,Reighlyn,001,2020-11-20_14h23.07.160,test1,2020.2.5,MacIntel,60,,,,,,,
,,,,m,3.25086,0,11,11,11,1,flowers/images/61.jpg,flowers/images/2.jpg,12,Reighlyn,001,2020-11-20_14h23.07.160,test1,2020.2.5,MacIntel,60,,,,,,,
,,,,z,2.837385,0,12,12,12,1,flowers/images/20.jpg,flowers/images/378.jpg,13,Reighlyn,001,2020-11-20_14h23.07.160,test1,2020.2.5,MacIntel,60,,,,,,,
,,,,m,4.476145,0,13,13,13,1,flowers/images/181.jpg,flowers/images/363.jpg,14,Reighlyn,001,2020-11-20_14h23.07.160,test1,2020.2.5,MacIntel,60,,,,,,,
,,,,m,2.080575,0,14,14,14,1,flowers/images/87.jpg,flowers/images/187.jpg,15,Reighlyn,001,2020-11-20_14h23.07.160,test1,2020.2.5,MacIntel,60,,,,,,,
,,,,m,2.410175,0,15,15,15,1,flowers/images/150.jpg,flowers/images/281.jpg,16,Reighlyn,001,2020-11-20_14h23.07.160,test1,2020.2.5,MacIntel,60,,,,,,,
,,,,z,2.280035,0,16,16,16,1,flowers/images/112.jpg,flowers/images/176.jpg,17,Reighlyn,001,2020-11-20_14h23.07.160,test1,2020.2.5,MacIntel,60,,,,,,,
,,,,z,3.411595,0,17,17,17,1,flowers/images/236.jpg,flowers/images/243.jpg,18,Reighlyn,001,2020-11-20_14h23.07.160,test1,2020.2.5,MacIntel,60,,,,,,,
,,,,z,8.018205,0,18,18,18,1,flowers/images/133.jpg,flowers/images/247.jpg,19,Reighlyn,001,2020-11-20_14h23.07.160,test1,2020.2.5,MacIntel,60,,,,,,,
,,,,m,3.25804,0,19,19,19,1,flowers/images/136.jpg,flowers/images/164.jpg,20,Reighlyn,001,2020-11-20_14h23.07.160,test1,2020.2.5,MacIntel,60,,,,,,,
,,,,z,2.221315,0,20,20,20,1,flowers/images/185.jpg,flowers/images/211.jpg,21,Reighlyn,001,2020-11-20_14h23.07.160,test1,2020.2.5,MacIntel,60,,,,,,,
,,,,m,2.23738,0,21,21,21,1,flowers/images/118.jpg,flowers/images/371.jpg,22,Reighlyn,001,2020-11-20_14h23.07.160,test1,2020.2.5,MacIntel,60,,,,,,,
,,,,m,2.61996,0,22,22,22,1,flowers/images/177.jpg,flowers/images/5.jpg,23,Reighlyn,001,2020-11-20_14h23.07.160,test1,2020.2.5,MacIntel,60,,,,,,,
,,,,m,2.75425,0,23,23,23,1,flowers/images/91.jpg,flowers/images/215.jpg,24,Reighlyn,001,2020-11-20_14h23.07.160,test1,2020.2.5,MacIntel,60,,,,,,,
,,,,z,3.995175,0,24,24,24,1,flowers/images/277.jpg,flowers/images/11.jpg,25,Reighlyn,001,2020-11-20_14h23.07.160,test1,2020.2.5,MacIntel,60,,,,,,,
,,,,z,2.73055,0,25,25,25,1,flowers/images/197.jpg,flowers/images/25.jpg,26,Reighlyn,001,2020-11-20_14h23.07.160,test1,2020.2.5,MacIntel,60,,,,,,,
,,,,m,2.08156,0,26,26,26,1,flowers/images/131.jpg,flowers/images/63.jpg,27,Reighlyn,001,2020-11-20_14h23.07.160,test1,2020.2.5,MacIntel,60,,,,,,,
,,,,m,1.700215,0,27,27,27,1,flowers/images/106.jpg,flowers/images/221.jpg,28,Reighlyn,001,2020-11-20_14h23.07.160,test1,2020.2.5,MacIntel,60,,,,,,,
,,,,m,2.90827,0,28,28,28,1,flowers/images/295.jpg,flowers/images/307.jpg,29,Reighlyn,001,2020-11-20_14h23.07.160,test1,2020.2.5,MacIntel,60,,,,,,,
,,,,z,4.12827,0,29,29,29,1,flowers/images/368.jpg,flowers/images/384.jpg,30,Reighlyn,001,2020-11-20_14h23.07.160,test1,2020.2.5,MacIntel,60,,,,,,,
,,,,m,2.008095,0,30,30,30,1,flowers/images/96.jpg,flowers/images/140.jpg,31,Reighlyn,001,2020-11-20_14h23.07.160,test1,2020.2.5,MacIntel,60,,,,,,,
,,,,m,5.315555,0,31,31,31,1,flowers/images/272.jpg,flowers/images/59.jpg,32,Reighlyn,001,2020-11-20_14h23.07.160,test1,2020.2.5,MacIntel,60,,,,,,,
,,,,m,0.308735,0,32,32,32,1,flowers/images/389.jpg,flowers/images/110.jpg,33,Reighlyn,001,2020-11-20_14h23.07.160,test1,2020.2.5,MacIntel,60,,,,,,,
,,,,m,2.612365,0,33,33,33,1,flowers/images/237.jpg,flowers/images/387.jpg,34,Reighlyn,001,2020-11-20_14h23.07.160,test1,2020.2.5,MacIntel,60,,,,,,,
,,,,m,5.87916,0,34,34,34,1,flowers/images/35.jpg,flowers/images/142.jpg,35,Reighlyn,001,2020-11-20_14h23.07.160,test1,2020.2.5,MacIntel,60,,,,,,,
,,,,z,2.49494,0,35,35,35,1,flowers/images/49.jpg,flowers/images/200.jpg,36,Reighlyn,001,2020-11-20_14h23.07.160,test1,2020.2.5,MacIntel,60,,,,,,,
,,,,z,2.61129,0,36,36,36,1,flowers/images/142.jpg,flowers/images/328.jpg,37,Reighlyn,001,2020-11-20_14h23.07.160,test1,2020.2.5,MacIntel,60,,,,,,,
,,,,m,2.745975,0,37,37,37,1,flowers/images/339.jpg,flowers/images/264.jpg,38,Reighlyn,001,2020-11-20_14h23.07.160,test1,2020.2.5,MacIntel,60,,,,,,,
,,,,m,1.41295,0,38,38,38,1,flowers/images/394.jpg,flowers/images/266.jpg,39,Reighlyn,001,2020-11-20_14h23.07.160,test1,2020.2.5,MacIntel,60,,,,,,,
,,,,m,1.90537,0,39,39,39,1,flowers/images/89.jpg,flowers/images/298.jpg,40,Reighlyn,001,2020-11-20_14h23.07.160,test1,2020.2.5,MacIntel,60,,,,,,,
,,,,z,2.002855,0,40,40,40,1,flowers/images/325.jpg,flowers/images/47.jpg,41,Reighlyn,001,2020-11-20_14h23.07.160,test1,2020.2.5,MacIntel,60,,,,,,,
,,,,z,5.562385,0,41,41,41,1,flowers/images/40.jpg,flowers/images/162.jpg,42,Reighlyn,001,2020-11-20_14h23.07.160,test1,2020.2.5,MacIntel,60,,,,,,,
,,,,z,2.09847,0,42,42,42,1,flowers/images/266.jpg,flowers/images/181.jpg,43,Reighlyn,001,2020-11-20_14h23.07.160,test1,2020.2.5,MacIntel,60,,,,,,,
,,,,z,4.027445,0,43,43,43,1,flowers/images/100.jpg,flowers/images/396.jpg,44,Reighlyn,001,2020-11-20_14h23.07.160,test1,2020.2.5,MacIntel,60,,,,,,,
,,,,z,1.711635,0,44,44,44,1,flowers/images/144.jpg,flowers/images/231.jpg,45,Reighlyn,001,2020-11-20_14h23.07.160,test1,2020.2.5,MacIntel,60,,,,,,,
,,,,m,2.102855,0,45,45,45,1,flowers/images/289.jpg,flowers/images/202.jpg,46,Reighlyn,001,2020-11-20_14h23.07.160,test1,2020.2.5,MacIntel,60,,,,,,,
,,,,z,2.597095,0,46,46,46,1,flowers/images/178.jpg,flowers/images/86.jpg,47,Reighlyn,001,2020-11-20_14h23.07.160,test1,2020.2.5,MacIntel,60,,,,,,,
,,,,z,7.18314,0,47,47,47,1,flowers/images/360.jpg,flowers/images/393.jpg,48,Reighlyn,001,2020-11-20_14h23.07.160,test1,2020.2.5,MacIntel,60,,,,,,,
,,,,m,2.32583,0,48,48,48,1,flowers/images/108.jpg,flowers/images/288.jpg,49,Reighlyn,001,2020-11-20_14h23.07.160,test1,2020.2.5,MacIntel,60,,,,,,,
,,,,z,2.200085,0,49,49,49,1,flowers/images/165.jpg,flowers/images/154.jpg,50,Reighlyn,001,2020-11-20_14h23.07.160,test1,2020.2.5,MacIntel,60,,,,,,,
,,,,z,2.3572,0,50,50,50,1,flowers/images/27.jpg,flowers/images/121.jpg,51,Reighlyn,001,2020-11-20_14h23.07.160,test1,2020.2.5,MacIntel,60,,,,,,,
,,,,z,5.265565,0,51,51,51,1,flowers/images/302.jpg,flowers/images/203.jpg,52,Reighlyn,001,2020-11-20_14h23.07.160,test1,2020.2.5,MacIntel,60,,,,,,,
,,,,m,2.69183,0,52,52,52,1,flowers/images/255.jpg,flowers/images/42.jpg,53,Reighlyn,001,2020-11-20_14h23.07.160,test1,2020.2.5,MacIntel,60,,,,,,,
,,,,z,2.022415,0,53,53,53,1,flowers/images/31.jpg,flowers/images/289.jpg,54,Reighlyn,001,2020-11-20_14h23.07.160,test1,2020.2.5,MacIntel,60,,,,,,,
,,,,m,1.971635,0,54,54,54,1,flowers/images/66.jpg,flowers/images/246.jpg,55,Reighlyn,001,2020-11-20_14h23.07.160,test1,2020.2.5,MacIntel,60,,,,,,,
,,,,m,1.54462,0,55,55,55,1,flowers/images/355.jpg,flowers/images/115.jpg,56,Reighlyn,001,2020-11-20_14h23.07.160,test1,2020.2.5,MacIntel,60,,,,,,,
,,,,m,3.511435,0,56,56,56,1,flowers/images/241.jpg,flowers/images/345.jpg,57,Reighlyn,001,2020-11-20_14h23.07.160,test1,2020.2.5,MacIntel,60,,,,,,,
,,,,m,5.042585,0,57,57,57,1,flowers/images/296.jpg,flowers/images/37.jpg,58,Reighlyn,001,2020-11-20_14h23.07.160,test1,2020.2.5,MacIntel,60,,,,,,,
,,,,z,2.86909,0,58,58,58,1,flowers/images/235.jpg,flowers/images/373.jpg,59,Reighlyn,001,2020-11-20_14h23.07.160,test1,2020.2.5,MacIntel,60,,,,,,,
,,,,z,3.405675,0,59,59,59,1,flowers/images/173.jpg,flowers/images/93.jpg,60,Reighlyn,001,2020-11-20_14h23.07.160,test1,2020.2.5,MacIntel,60,,,,,,,
,,,,z,11.26321,0,60,60,60,1,flowers/images/331.jpg,flowers/images/88.jpg,61,Reighlyn,001,2020-11-20_14h23.07.160,test1,2020.2.5,MacIntel,60,,,,,,,
,,,,z,3.418005,0,61,61,61,1,flowers/images/134.jpg,flowers/images/127.jpg,62,Reighlyn,001,2020-11-20_14h23.07.160,test1,2020.2.5,MacIntel,60,,,,,,,
,,,,z,1.324095,0,62,62,62,1,flowers/images/285.jpg,flowers/images/201.jpg,63,Reighlyn,001,2020-11-20_14h23.07.160,test1,2020.2.5,MacIntel,60,,,,,,,
,,,,z,1.646135,0,63,63,63,1,flowers/images/151.jpg,flowers/images/52.jpg,64,Reighlyn,001,2020-11-20_14h23.07.160,test1,2020.2.5,MacIntel,60,,,,,,,
,,,,m,2.983715,0,64,64,64,1,flowers/images/208.jpg,flowers/images/186.jpg,65,Reighlyn,001,2020-11-20_14h23.07.160,test1,2020.2.5,MacIntel,60,,,,,,,
,,,,z,1.679625,0,65,65,65,1,flowers/images/80.jpg,flowers/images/124.jpg,66,Reighlyn,001,2020-11-20_14h23.07.160,test1,2020.2.5,MacIntel,60,,,,,,,
,,,,m,2.62401,0,66,66,66,1,flowers/images/303.jpg,flowers/images/347.jpg,67,Reighlyn,001,2020-11-20_14h23.07.160,test1,2020.2.5,MacIntel,60,,,,,,,
,,,,m,2.450295,0,67,67,67,1,flowers/images/6.jpg,flowers/images/262.jpg,68,Reighlyn,001,2020-11-20_14h23.07.160,test1,2020.2.5,MacIntel,60,,,,,,,
,,,,m,1.28273,0,68,68,68,1,flowers/images/85.jpg,flowers/images/20.jpg,69,Reighlyn,001,2020-11-20_14h23.07.160,test1,2020.2.5,MacIntel,60,,,,,,,
,,,,z,1.50017,0,69,69,69,1,flowers/images/392.jpg,flowers/images/15.jpg,70,Reighlyn,001,2020-11-20_14h23.07.160,test1,2020.2.5,MacIntel,60,,,,,,,
,,,,z,7.91159,0,70,70,70,1,flowers/images/341.jpg,flowers/images/357.jpg,71,Reighlyn,001,2020-11-20_14h23.07.160,test1,2020.2.5,MacIntel,60,,,,,,,
,,,,z,1.980235,0,71,71,71,1,flowers/images/293.jpg,flowers/images/158.jpg,72,Reighlyn,001,2020-11-20_14h23.07.160,test1,2020.2.5,MacIntel,60,,,,,,,
,,,,z,0.945175,0,72,72,72,1,flowers/images/390.jpg,flowers/images/58.jpg,73,Reighlyn,001,2020-11-20_14h23.07.160,test1,2020.2.5,MacIntel,60,,,,,,,
,,,,m,2.37729,0,73,73,73,1,flowers/images/82.jpg,flowers/images/16.jpg,74,Reighlyn,001,2020-11-20_14h23.07.160,test1,2020.2.5,MacIntel,60,,,,,,,
,,,,z,4.18682,0,74,74,74,1,flowers/images/336.jpg,flowers/images/130.jpg,75,Reighlyn,001,2020-11-20_14h23.07.160,test1,2020.2.5,MacIntel,60,,,,,,,
,,,,m,2.363735,0,75,75,75,1,flowers/images/160.jpg,flowers/images/105.jpg,76,Reighlyn,001,2020-11-20_14h23.07.160,test1,2020.2.5,MacIntel,60,,,,,,,
,,,,m,1.468645,0,76,76,76,1,flowers/images/328.jpg,flowers/images/305.jpg,77,Reighlyn,001,2020-11-20_14h23.07.160,test1,2020.2.5,MacIntel,60,,,,,,,
,,,,m,1.584735,0,77,77,77,1,flowers/images/180.jpg,flowers/images/249.jpg,78,Reighlyn,001,2020-11-20_14h23.07.160,test1,2020.2.5,MacIntel,60,,,,,,,
,,,,z,1.868405,0,78,78,78,1,flowers/images/169.jpg,flowers/images/94.jpg,79,Reighlyn,001,2020-11-20_14h23.07.160,test1,2020.2.5,MacIntel,60,,,,,,,
,,,,m,3.86891,0,79,79,79,1,flowers/images/145.jpg,flowers/images/277.jpg,80,Reighlyn,001,2020-11-20_14h23.07.160,test1,2020.2.5,MacIntel,60,,,,,,,
,,,,m,2.47997,0,80,80,80,1,flowers/images/358.jpg,flowers/images/197.jpg,81,Reighlyn,001,2020-11-20_14h23.07.160,test1,2020.2.5,MacIntel,60,,,,,,,
,,,,m,2.4611,0,81,81,81,1,flowers/images/71.jpg,flowers/images/128.jpg,82,Reighlyn,001,2020-11-20_14h23.07.160,test1,2020.2.5,MacIntel,60,,,,,,,
,,,,z,3.36297,0,82,82,82,1,flowers/images/192.jpg,flowers/images/379.jpg,83,Reighlyn,001,2020-11-20_14h23.07.160,test1,2020.2.5,MacIntel,60,,,,,,,
,,,,m,3.41524,0,83,83,83,1,flowers/images/189.jpg,flowers/images/271.jpg,84,Reighlyn,001,2020-11-20_14h23.07.160,test1,2020.2.5,MacIntel,60,,,,,,,
,,,,m,2.004885,0,84,84,84,1,flowers/images/15.jpg,flowers/images/28.jpg,85,Reighlyn,001,2020-11-20_14h23.07.160,test1,2020.2.5,MacIntel,60,,,,,,,
,,,,m,3.561415,0,85,85,85,1,flowers/images/171.jpg,flowers/images/97.jpg,86,Reighlyn,001,2020-11-20_14h23.07.160,test1,2020.2.5,MacIntel,60,,,,,,,
,,,,m,2.091905,0,86,86,86,1,flowers/images/287.jpg,flowers/images/29.jpg,87,Reighlyn,001,2020-11-20_14h23.07.160,test1,2020.2.5,MacIntel,60,,,,,,,
,,,,m,1.639065,0,87,87,87,1,flowers/images/381.jpg,flowers/images/356.jpg,88,Reighlyn,001,2020-11-20_14h23.07.160,test1,2020.2.5,MacIntel,60,,,,,,,
,,,,m,2.34186,0,88,88,88,1,flowers/images/76.jpg,flowers/images/10.jpg,89,Reighlyn,001,2020-11-20_14h23.07.160,test1,2020.2.5,MacIntel,60,,,,,,,
,,,,m,4.43063,0,89,89,89,1,flowers/images/239.jpg,flowers/images/226.jpg,90,Reighlyn,001,2020-11-20_14h23.07.160,test1,2020.2.5,MacIntel,60,,,,,,,
,,,,m,2.16159,0,90,90,90,1,flowers/images/398.jpg,flowers/images/368.jpg,91,Reighlyn,001,2020-11-20_14h23.07.160,test1,2020.2.5,MacIntel,60,,,,,,,
,,,,z,2.62652,0,91,91,91,1,flowers/images/21.jpg,flowers/images/53.jpg,92,Reighlyn,001,2020-11-20_14h23.07.160,test1,2020.2.5,MacIntel,60,,,,,,,
,,,,z,1.408955,0,92,92,92,1,flowers/images/352.jpg,flowers/images/230.jpg,93,Reighlyn,001,2020-11-20_14h23.07.160,test1,2020.2.5,MacIntel,60,,,,,,,
,,,,z,1.71282,0,93,93,93,1,flowers/images/54.jpg,flowers/images/280.jpg,94,Reighlyn,001,2020-11-20_14h23.07.160,test1,2020.2.5,MacIntel,60,,,,,,,
,,,,z,3.715425,0,94,94,94,1,flowers/images/259.jpg,flowers/images/184.jpg,95,Reighlyn,001,2020-11-20_14h23.07.160,test1,2020.2.5,MacIntel,60,,,,,,,
,,,,z,3.13918,0,95,95,95,1,flowers/images/7.jpg,flowers/images/137.jpg,96,Reighlyn,001,2020-11-20_14h23.07.160,test1,2020.2.5,MacIntel,60,,,,,,,
,,,,m,2.40191,0,96,96,96,1,flowers/images/292.jpg,flowers/images/364.jpg,97,Reighlyn,001,2020-11-20_14h23.07.160,test1,2020.2.5,MacIntel,60,,,,,,,
,,,,z,1.93133,0,97,97,97,1,flowers/images/84.jpg,flowers/images/245.jpg,98,Reighlyn,001,2020-11-20_14h23.07.160,test1,2020.2.5,MacIntel,60,,,,,,,
,,,,m,2.42758,0,98,98,98,1,flowers/images/141.jpg,flowers/images/183.jpg,99,Reighlyn,001,2020-11-20_14h23.07.160,test1,2020.2.5,MacIntel,60,,,,,,,
,,,,m,1.57197,0,99,99,99,1,flowers/images/45.jpg,flowers/images/375.jpg,100,Reighlyn,001,2020-11-20_14h23.07.160,test1,2020.2.5,MacIntel,60,,,,,,,
,,,,z,1.824685,0,100,100,100,1,flowers/images/111.jpg,flowers/images/395.jpg,101,Reighlyn,001,2020-11-20_14h23.07.160,test1,2020.2.5,MacIntel,60,,,,,,,
,,,,m,1.9316,0,101,101,101,1,flowers/images/46.jpg,flowers/images/360.jpg,102,Reighlyn,001,2020-11-20_14h23.07.160,test1,2020.2.5,MacIntel,60,,,,,,,
,,,,z,3.18351,0,102,102,102,1,flowers/images/399.jpg,flowers/images/4.jpg,103,Reighlyn,001,2020-11-20_14h23.07.160,test1,2020.2.5,MacIntel,60,,,,,,,
,,,,m,1.85255,0,103,103,103,1,flowers/images/250.jpg,flowers/images/113.jpg,104,Reighlyn,001,2020-11-20_14h23.07.160,test1,2020.2.5,MacIntel,60,,,,,,,
,,,,z,4.380235,0,104,104,104,1,flowers/images/359.jpg,flowers/images/283.jpg,105,Reighlyn,001,2020-11-20_14h23.07.160,test1,2020.2.5,MacIntel,60,,,,,,,
,,,,z,1.698295,0,105,105,105,1,flowers/images/209.jpg,flowers/images/309.jpg,106,Reighlyn,001,2020-11-20_14h23.07.160,test1,2020.2.5,MacIntel,60,,,,,,,
,,,,m,2.3234,0,106,106,106,1,flowers/images/219.jpg,flowers/images/285.jpg,107,Reighlyn,001,2020-11-20_14h23.07.160,test1,2020.2.5,MacIntel,60,,,,,,,
,,,,m,1.74482,0,107,107,107,1,flowers/images/159.jpg,flowers/images/377.jpg,108,Reighlyn,001,2020-11-20_14h23.07.160,test1,2020.2.5,MacIntel,60,,,,,,,
,,,,m,2.351675,0,108,108,108,1,flowers/images/17.jpg,flowers/images/365.jpg,109,Reighlyn,001,2020-11-20_14h23.07.160,test1,2020.2.5,MacIntel,60,,,,,,,
,,,,z,1.98939,0,109,109,109,1,flowers/images/247.jpg,flowers/images/14.jpg,110,Reighlyn,001,2020-11-20_14h23.07.160,test1,2020.2.5,MacIntel,60,,,,,,,
,,,,z,2.45299,0,110,110,110,1,flowers/images/357.jpg,flowers/images/229.jpg,111,Reighlyn,001,2020-11-20_14h23.07.160,test1,2020.2.5,MacIntel,60,,,,,,,
,,,,m,2.77806,0,111,111,111,1,flowers/images/378.jpg,flowers/images/299.jpg,112,Reighlyn,001,2020-11-20_14h23.07.160,test1,2020.2.5,MacIntel,60,,,,,,,
,,,,m,4.57759,0,112,112,112,1,flowers/images/191.jpg,flowers/images/304.jpg,113,Reighlyn,001,2020-11-20_14h23.07.160,test1,2020.2.5,MacIntel,60,,,,,,,
,,,,z,1.98021,0,113,113,113,1,flowers/images/195.jpg,flowers/images/44.jpg,114,Reighlyn,001,2020-11-20_14h23.07.160,test1,2020.2.5,MacIntel,60,,,,,,,
,,,,z,2.4802,0,114,114,114,1,flowers/images/126.jpg,flowers/images/161.jpg,115,Reighlyn,001,2020-11-20_14h23.07.160,test1,2020.2.5,MacIntel,60,,,,,,,
,,,,m,2.02291,0,115,115,115,1,flowers/images/340.jpg,flowers/images/178.jpg,116,Reighlyn,001,2020-11-20_14h23.07.160,test1,2020.2.5,MacIntel,60,,,,,,,
,,,,m,1.246035,0,116,116,116,1,flowers/images/201.jpg,flowers/images/21.jpg,117,Reighlyn,001,2020-11-20_14h23.07.160,test1,2020.2.5,MacIntel,60,,,,,,,
,,,,z,2.06773,0,117,117,117,1,flowers/images/307.jpg,flowers/images/122.jpg,118,Reighlyn,001,2020-11-20_14h23.07.160,test1,2020.2.5,MacIntel,60,,,,,,,
,,,,m,3.412125,0,118,118,118,1,flowers/images/194.jpg,flowers/images/23.jpg,119,Reighlyn,001,2020-11-20_14h23.07.160,test1,2020.2.5,MacIntel,60,,,,,,,
,,,,z,1.774455,0,119,119,119,1,flowers/images/318.jpg,flowers/images/293.jpg,120,Reighlyn,001,2020-11-20_14h23.07.160,test1,2020.2.5,MacIntel,60,,,,,,,
,,,,m,2.146375,0,120,120,120,1,flowers/images/69.jpg,flowers/images/327.jpg,121,Reighlyn,001,2020-11-20_14h23.07.160,test1,2020.2.5,MacIntel,60,,,,,,,
,,,,m,2.57046,0,121,121,121,1,flowers/images/98.jpg,flowers/images/208.jpg,122,Reighlyn,001,2020-11-20_14h23.07.160,test1,2020.2.5,MacIntel,60,,,,,,,
,,,,m,2.048045,0,122,122,122,1,flowers/images/184.jpg,flowers/images/96.jpg,123,Reighlyn,001,2020-11-20_14h23.07.160,test1,2020.2.5,MacIntel,60,,,,,,,
,,,,m,1.582345,0,123,123,123,1,flowers/images/44.jpg,flowers/images/317.jpg,124,Reighlyn,001,2020-11-20_14h23.07.160,test1,2020.2.5,MacIntel,60,,,,,,,
,,,,z,2.2333,0,124,124,124,1,flowers/images/222.jpg,flowers/images/9.jpg,125,Reighlyn,001,2020-11-20_14h23.07.160,test1,2020.2.5,MacIntel,60,,,,,,,
,,,,m,2.5416,0,125,125,125,1,flowers/images/218.jpg,flowers/images/153.jpg,126,Reighlyn,001,2020-11-20_14h23.07.160,test1,2020.2.5,MacIntel,60,,,,,,,
,,,,m,2.10629,0,126,126,126,1,flowers/images/275.jpg,flowers/images/295.jpg,127,Reighlyn,001,2020-11-20_14h23.07.160,test1,2020.2.5,MacIntel,60,,,,,,,
,,,,m,2.085275,0,127,127,127,1,flowers/images/172.jpg,flowers/images/34.jpg,128,Reighlyn,001,2020-11-20_14h23.07.160,test1,2020.2.5,MacIntel,60,,,,,,,
,,,,z,1.916585,0,128,128,128,1,flowers/images/345.jpg,flowers/images/89.jpg,129,Reighlyn,001,2020-11-20_14h23.07.160,test1,2020.2.5,MacIntel,60,,,,,,,
,,,,z,3.62494,0,129,129,129,1,flowers/images/334.jpg,flowers/images/376.jpg,130,Reighlyn,001,2020-11-20_14h23.07.160,test1,2020.2.5,MacIntel,60,,,,,,,
,,,,m,2.20232,0,130,130,130,1,flowers/images/93.jpg,flowers/images/6.jpg,131,Reighlyn,001,2020-11-20_14h23.07.160,test1,2020.2.5,MacIntel,60,,,,,,,
,,,,z,1.31284,0,131,131,131,1,flowers/images/183.jpg,flowers/images/76.jpg,132,Reighlyn,001,2020-11-20_14h23.07.160,test1,2020.2.5,MacIntel,60,,,,,,,
,,,,z,5.690975,0,132,132,132,1,flowers/images/304.jpg,flowers/images/224.jpg,133,Reighlyn,001,2020-11-20_14h23.07.160,test1,2020.2.5,MacIntel,60,,,,,,,
,,,,z,2.18995,0,133,133,133,1,flowers/images/330.jpg,flowers/images/81.jpg,134,Reighlyn,001,2020-11-20_14h23.07.160,test1,2020.2.5,MacIntel,60,,,,,,,
,,,,z,2.405495,0,134,134,134,1,flowers/images/147.jpg,flowers/images/36.jpg,135,Reighlyn,001,2020-11-20_14h23.07.160,test1,2020.2.5,MacIntel,60,,,,,,,
,,,,z,3.44009,0,135,135,135,1,flowers/images/62.jpg,flowers/images/321.jpg,136,Reighlyn,001,2020-11-20_14h23.07.160,test1,2020.2.5,MacIntel,60,,,,,,,
,,,,m,1.363975,0,136,136,136,1,flowers/images/367.jpg,flowers/images/311.jpg,137,Reighlyn,001,2020-11-20_14h23.07.160,test1,2020.2.5,MacIntel,60,,,,,,,
,,,,z,2.280555,0,137,137,137,1,flowers/images/326.jpg,flowers/images/7.jpg,138,Reighlyn,001,2020-11-20_14h23.07.160,test1,2020.2.5,MacIntel,60,,,,,,,
,,,,z,4.530685,0,138,138,138,1,flowers/images/28.jpg,flowers/images/382.jpg,139,Reighlyn,001,2020-11-20_14h23.07.160,test1,2020.2.5,MacIntel,60,,,,,,,
,,,,z,2.634555,0,139,139,139,1,flowers/images/156.jpg,flowers/images/152.jpg,140,Reighlyn,001,2020-11-20_14h23.07.160,test1,2020.2.5,MacIntel,60,,,,,,,
,,,,z,1.325725,0,140,140,140,1,flowers/images/113.jpg,flowers/images/167.jpg,141,Reighlyn,001,2020-11-20_14h23.07.160,test1,2020.2.5,MacIntel,60,,,,,,,
,,,,m,1.981275,0,141,141,141,1,flowers/images/155.jpg,flowers/images/342.jpg,142,Reighlyn,001,2020-11-20_14h23.07.160,test1,2020.2.5,MacIntel,60,,,,,,,
,,,,m,1.762135,0,142,142,142,1,flowers/images/213.jpg,flowers/images/353.jpg,143,Reighlyn,001,2020-11-20_14h23.07.160,test1,2020.2.5,MacIntel,60,,,,,,,
,,,,z,1.858995,0,143,143,143,1,flowers/images/298.jpg,flowers/images/90.jpg,144,Reighlyn,001,2020-11-20_14h23.07.160,test1,2020.2.5,MacIntel,60,,,,,,,
,,,,z,1.33743,0,144,144,144,1,flowers/images/217.jpg,flowers/images/240.jpg,145,Reighlyn,001,2020-11-20_14h23.07.160,test1,2020.2.5,MacIntel,60,,,,,,,
,,,,z,2.7578,0,145,145,145,1,flowers/images/97.jpg,flowers/images/133.jpg,146,Reighlyn,001,2020-11-20_14h23.07.160,test1,2020.2.5,MacIntel,60,,,,,,,
,,,,m,2.026475,0,146,146,146,1,flowers/images/354.jpg,flowers/images/310.jpg,147,Reighlyn,001,2020-11-20_14h23.07.160,test1,2020.2.5,MacIntel,60,,,,,,,
,,,,z,1.970365,0,147,147,147,1,flowers/images/377.jpg,flowers/images/273.jpg,148,Reighlyn,001,2020-11-20_14h23.07.160,test1,2020.2.5,MacIntel,60,,,,,,,
,,,,m,1.887705,0,148,148,148,1,flowers/images/121.jpg,flowers/images/294.jpg,149,Reighlyn,001,2020-11-20_14h23.07.160,test1,2020.2.5,MacIntel,60,,,,,,,
,,,,m,1.716005,0,149,149,149,1,flowers/images/14.jpg,flowers/images/101.jpg,150,Reighlyn,001,2020-11-20_14h23.07.160,test1,2020.2.5,MacIntel,60,,,,,,,
,,,,m,3.232375,0,150,150,150,1,flowers/images/321.jpg,flowers/images/51.jpg,151,Reighlyn,001,2020-11-20_14h23.07.160,test1,2020.2.5,MacIntel,60,,,,,,,
,,,,m,2.874535,0,151,151,151,1,flowers/images/362.jpg,flowers/images/175.jpg,152,Reighlyn,001,2020-11-20_14h23.07.160,test1,2020.2.5,MacIntel,60,,,,,,,
,,,,m,1.400515,0,152,152,152,1,flowers/images/203.jpg,flowers/images/248.jpg,153,Reighlyn,001,2020-11-20_14h23.07.160,test1,2020.2.5,MacIntel,60,,,,,,,
,,,,m,1.67855,0,153,153,153,1,flowers/images/12.jpg,flowers/images/300.jpg,154,Reighlyn,001,2020-11-20_14h23.07.160,test1,2020.2.5,MacIntel,60,,,,,,,
,,,,z,1.745695,0,154,154,154,1,flowers/images/365.jpg,flowers/images/218.jpg,155,Reighlyn,001,2020-11-20_14h23.07.160,test1,2020.2.5,MacIntel,60,,,,,,,
,,,,z,1.46959,0,155,155,155,1,flowers/images/75.jpg,flowers/images/109.jpg,156,Reighlyn,001,2020-11-20_14h23.07.160,test1,2020.2.5,MacIntel,60,,,,,,,
,,,,m,1.906875,0,156,156,156,1,flowers/images/127.jpg,flowers/images/333.jpg,157,Reighlyn,001,2020-11-20_14h23.07.160,test1,2020.2.5,MacIntel,60,,,,,,,
,,,,z,2.65766,0,157,157,157,1,flowers/images/258.jpg,flowers/images/135.jpg,158,Reighlyn,001,2020-11-20_14h23.07.160,test1,2020.2.5,MacIntel,60,,,,,,,
,,,,z,3.77422,0,158,158,158,1,flowers/images/343.jpg,flowers/images/65.jpg,159,Reighlyn,001,2020-11-20_14h23.07.160,test1,2020.2.5,MacIntel,60,,,,,,,
,,,,z,3.924385,0,159,159,159,1,flowers/images/58.jpg,flowers/images/138.jpg,160,Reighlyn,001,2020-11-20_14h23.07.160,test1,2020.2.5,MacIntel,60,,,,,,,
,,,,m,1.161485,0,160,160,160,1,flowers/images/94.jpg,flowers/images/234.jpg,161,Reighlyn,001,2020-11-20_14h23.07.160,test1,2020.2.5,MacIntel,60,,,,,,,
,,,,z,1.2964,0,161,161,161,1,flowers/images/379.jpg,flowers/images/207.jpg,162,Reighlyn,001,2020-11-20_14h23.07.160,test1,2020.2.5,MacIntel,60,,,,,,,
,,,,z,1.708975,0,162,162,162,1,flowers/images/128.jpg,flowers/images/79.jpg,163,Reighlyn,001,2020-11-20_14h23.07.160,test1,2020.2.5,MacIntel,60,,,,,,,
,,,,m,3.093315,0,163,163,163,1,flowers/images/47.jpg,flowers/images/85.jpg,164,Reighlyn,001,2020-11-20_14h23.07.160,test1,2020.2.5,MacIntel,60,,,,,,,
,,,,z,2.21414,0,164,164,164,1,flowers/images/19.jpg,flowers/images/191.jpg,165,Reighlyn,001,2020-11-20_14h23.07.160,test1,2020.2.5,MacIntel,60,,,,,,,
,,,,m,2.468175,0,165,165,165,1,flowers/images/32.jpg,flowers/images/259.jpg,166,Reighlyn,001,2020-11-20_14h23.07.160,test1,2020.2.5,MacIntel,60,,,,,,,
,,,,z,1.062145,0,166,166,166,1,flowers/images/323.jpg,flowers/images/284.jpg,167,Reighlyn,001,2020-11-20_14h23.07.160,test1,2020.2.5,MacIntel,60,,,,,,,
,,,,m,1.204925,0,167,167,167,1,flowers/images/395.jpg,flowers/images/348.jpg,168,Reighlyn,001,2020-11-20_14h23.07.160,test1,2020.2.5,MacIntel,60,,,,,,,
,,,,z,3.76274,0,168,168,168,1,flowers/images/279.jpg,flowers/images/370.jpg,169,Reighlyn,001,2020-11-20_14h23.07.160,test1,2020.2.5,MacIntel,60,,,,,,,
,,,,z,1.527075,0,169,169,169,1,flowers/images/264.jpg,flowers/images/125.jpg,170,Reighlyn,001,2020-11-20_14h23.07.160,test1,2020.2.5,MacIntel,60,,,,,,,
,,,,m,3.75173,0,170,170,170,1,flowers/images/77.jpg,flowers/images/318.jpg,171,Reighlyn,001,2020-11-20_14h23.07.160,test1,2020.2.5,MacIntel,60,,,,,,,
,,,,m,4.89079,0,171,171,171,1,flowers/images/376.jpg,flowers/images/242.jpg,172,Reighlyn,001,2020-11-20_14h23.07.160,test1,2020.2.5,MacIntel,60,,,,,,,
,,,,z,1.00312,0,172,172,172,1,flowers/images/351.jpg,flowers/images/132.jpg,173,Reighlyn,001,2020-11-20_14h23.07.160,test1,2020.2.5,MacIntel,60,,,,,,,
,,,,z,1.784,0,173,173,173,1,flowers/images/305.jpg,flowers/images/252.jpg,174,Reighlyn,001,2020-11-20_14h23.07.160,test1,2020.2.5,MacIntel,60,,,,,,,
,,,,z,2.116695,0,174,174,174,1,flowers/images/29.jpg,flowers/images/217.jpg,175,Reighlyn,001,2020-11-20_14h23.07.160,test1,2020.2.5,MacIntel,60,,,,,,,
,,,,m,1.180795,0,175,175,175,1,flowers/images/3.jpg,flowers/images/228.jpg,176,Reighlyn,001,2020-11-20_14h23.07.160,test1,2020.2.5,MacIntel,60,,,,,,,
,,,,m,2.041055,0,176,176,176,1,flowers/images/199.jpg,flowers/images/330.jpg,177,Reighlyn,001,2020-11-20_14h23.07.160,test1,2020.2.5,MacIntel,60,,,,,,,
,,,,z,1.71589,0,177,177,177,1,flowers/images/274.jpg,flowers/images/179.jpg,178,Reighlyn,001,2020-11-20_14h23.07.160,test1,2020.2.5,MacIntel,60,,,,,,,
,,,,z,1.49562,0,178,178,178,1,flowers/images/346.jpg,flowers/images/290.jpg,179,Reighlyn,001,2020-11-20_14h23.07.160,test1,2020.2.5,MacIntel,60,,,,,,,
,,,,z,1.909975,0,179,179,179,1,flowers/images/56.jpg,flowers/images/204.jpg,180,Reighlyn,001,2020-11-20_14h23.07.160,test1,2020.2.5,MacIntel,60,,,,,,,
,,,,m,1.658305,0,180,180,180,1,flowers/images/179.jpg,flowers/images/114.jpg,181,Reighlyn,001,2020-11-20_14h23.07.160,test1,2020.2.5,MacIntel,60,,,,,,,
,,,,m,2.147365,0,181,181,181,1,flowers/images/36.jpg,flowers/images/223.jpg,182,Reighlyn,001,2020-11-20_14h23.07.160,test1,2020.2.5,MacIntel,60,,,,,,,
,,,,z,1.78091,0,182,182,182,1,flowers/images/344.jpg,flowers/images/168.jpg,183,Reighlyn,001,2020-11-20_14h23.07.160,test1,2020.2.5,MacIntel,60,,,,,,,
,,,,m,1.79714,0,183,183,183,1,flowers/images/153.jpg,flowers/images/22.jpg,184,Reighlyn,001,2020-11-20_14h23.07.160,test1,2020.2.5,MacIntel,60,,,,,,,
,,,,z,1.682965,0,184,184,184,1,flowers/images/39.jpg,flowers/images/323.jpg,185,Reighlyn,001,2020-11-20_14h23.07.160,test1,2020.2.5,MacIntel,60,,,,,,,
,,,,z,1.66265,0,185,185,185,1,flowers/images/327.jpg,flowers/images/349.jpg,186,Reighlyn,001,2020-11-20_14h23.07.160,test1,2020.2.5,MacIntel,60,,,,,,,
,,,,m,0.938375,0,186,186,186,1,flowers/images/81.jpg,flowers/images/30.jpg,187,Reighlyn,001,2020-11-20_14h23.07.160,test1,2020.2.5,MacIntel,60,,,,,,,
,,,,z,1.38183,0,187,187,187,1,flowers/images/42.jpg,flowers/images/107.jpg,188,Reighlyn,001,2020-11-20_14h23.07.160,test1,2020.2.5,MacIntel,60,,,,,,,
,,,,z,2.162075,0,188,188,188,1,flowers/images/18.jpg,flowers/images/358.jpg,189,Reighlyn,001,2020-11-20_14h23.07.160,test1,2020.2.5,MacIntel,60,,,,,,,
,,,,z,1.690765,0,189,189,189,1,flowers/images/200.jpg,flowers/images/385.jpg,190,Reighlyn,001,2020-11-20_14h23.07.160,test1,2020.2.5,MacIntel,60,,,,,,,
,,,,m,2.82385,0,190,190,190,1,flowers/images/369.jpg,flowers/images/233.jpg,191,Reighlyn,001,2020-11-20_14h23.07.160,test1,2020.2.5,MacIntel,60,,,,,,,
,,,,m,11.345315,0,191,191,191,1,flowers/images/309.jpg,flowers/images/320.jpg,192,Reighlyn,001,2020-11-20_14h23.07.160,test1,2020.2.5,MacIntel,60,,,,,,,
,,,,z,1.163305,0,192,192,192,1,flowers/images/64.jpg,flowers/images/303.jpg,193,Reighlyn,001,2020-11-20_14h23.07.160,test1,2020.2.5,MacIntel,60,,,,,,,
,,,,m,1.975125,0,193,193,193,1,flowers/images/86.jpg,flowers/images/216.jpg,194,Reighlyn,001,2020-11-20_14h23.07.160,test1,2020.2.5,MacIntel,60,,,,,,,
,,,,m,1.69635,0,194,194,194,1,flowers/images/260.jpg,flowers/images/361.jpg,195,Reighlyn,001,2020-11-20_14h23.07.160,test1,2020.2.5,MacIntel,60,,,,,,,
,,,,m,2.61408,0,195,195,195,1,flowers/images/9.jpg,flowers/images/173.jpg,196,Reighlyn,001,2020-11-20_14h23.07.160,test1,2020.2.5,MacIntel,60,,,,,,,
,,,,z,38.999075,0,196,196,196,1,flowers/images/22.jpg,flowers/images/41.jpg,197,Reighlyn,001,2020-11-20_14h23.07.160,test1,2020.2.5,MacIntel,60,,,,,,,
,,,,m,1.475865,0,197,197,197,1,flowers/images/214.jpg,flowers/images/145.jpg,198,Reighlyn,001,2020-11-20_14h23.07.160,test1,2020.2.5,MacIntel,60,,,,,,,
,,,,m,1.28185,0,198,198,198,1,flowers/images/72.jpg,flowers/images/308.jpg,199,Reighlyn,001,2020-11-20_14h23.07.160,test1,2020.2.5,MacIntel,60,,,,,,,
,,,,z,1.747175,0,199,199,199,1,flowers/images/34.jpg,flowers/images/237.jpg,200,Reighlyn,001,2020-11-20_14h23.07.160,test1,2020.2.5,MacIntel,60,,,,,,,
,,,,z,6.163515,,,,,,flowers/images/166.jpg,flowers/images/169.jpg,1,Reighlyn,001,2020-11-20_14h23.07.160,test1,2020.2.5,MacIntel,60,space,1.852425,0,0,0,0,1
,,,,m,3.31879,,,,,,flowers/images/161.jpg,flowers/images/68.jpg,2,Reighlyn,001,2020-11-20_14h23.07.160,test1,2020.2.5,MacIntel,60,,,0,1,1,1,1
,,,,z,1.970075,,,,,,flowers/images/319.jpg,flowers/images/341.jpg,3,Reighlyn,001,2020-11-20_14h23.07.160,test1,2020.2.5,MacIntel,60,,,0,2,2,2,1
,,,,z,1.838065,,,,,,flowers/images/322.jpg,flowers/images/111.jpg,4,Reighlyn,001,2020-11-20_14h23.07.160,test1,2020.2.5,MacIntel,60,,,0,3,3,3,1
,,,,m,2.116225,,,,,,flowers/images/2.jpg,flowers/images/95.jpg,5,Reighlyn,001,2020-11-20_14h23.07.160,test1,2020.2.5,MacIntel,60,,,0,4,4,4,1
,,,,z,1.726,,,,,,flowers/images/276.jpg,flowers/images/66.jpg,6,Reighlyn,001,2020-11-20_14h23.07.160,test1,2020.2.5,MacIntel,60,,,0,5,5,5,1
,,,,m,2.06411,,,,,,flowers/images/116.jpg,flowers/images/206.jpg,7,Reighlyn,001,2020-11-20_14h23.07.160,test1,2020.2.5,MacIntel,60,,,0,6,6,6,1
,,,,z,4.71179,,,,,,flowers/images/282.jpg,flowers/images/314.jpg,8,Reighlyn,001,2020-11-20_14h23.07.160,test1,2020.2.5,MacIntel,60,,,0,7,7,7,1
,,,,z,1.54181,,,,,,flowers/images/261.jpg,flowers/images/260.jpg,9,Reighlyn,001,2020-11-20_14h23.07.160,test1,2020.2.5,MacIntel,60,,,0,8,8,8,1
,,,,z,2.073715,,,,,,flowers/images/353.jpg,flowers/images/151.jpg,10,Reighlyn,001,2020-11-20_14h23.07.160,test1,2020.2.5,MacIntel,60,,,0,9,9,9,1
,,,,m,2.077645,,,,,,flowers/images/216.jpg,flowers/images/156.jpg,11,Reighlyn,001,2020-11-20_14h23.07.160,test1,2020.2.5,MacIntel,60,,,0,10,10,10,1
,,,,z,1.060715,,,,,,flowers/images/320.jpg,flowers/images/292.jpg,12,Reighlyn,001,2020-11-20_14h23.07.160,test1,2020.2.5,MacIntel,60,,,0,11,11,11,1
,,,,m,2.48627,,,,,,flowers/images/149.jpg,flowers/images/279.jpg,13,Reighlyn,001,2020-11-20_14h23.07.160,test1,2020.2.5,MacIntel,60,,,0,12,12,12,1
,,,,m,1.72098,,,,,,flowers/images/163.jpg,flowers/images/219.jpg,14,Reighlyn,001,2020-11-20_14h23.07.160,test1,2020.2.5,MacIntel,60,,,0,13,13,13,1
,,,,m,1.757255,,,,,,flowers/images/10.jpg,flowers/images/232.jpg,15,Reighlyn,001,2020-11-20_14h23.07.160,test1,2020.2.5,MacIntel,60,,,0,14,14,14,1
,,,,z,3.084585,,,,,,flowers/images/55.jpg,flowers/images/73.jpg,16,Reighlyn,001,2020-11-20_14h23.07.160,test1,2020.2.5,MacIntel,60,,,0,15,15,15,1
,,,,m,2.00804,,,,,,flowers/images/123.jpg,flowers/images/189.jpg,17,Reighlyn,001,2020-11-20_14h23.07.160,test1,2020.2.5,MacIntel,60,,,0,16,16,16,1
,,,,m,1.86196,,,,,,flowers/images/37.jpg,flowers/images/254.jpg,18,Reighlyn,001,2020-11-20_14h23.07.160,test1,2020.2.5,MacIntel,60,,,0,17,17,17,1
,,,,z,3.465445,,,,,,flowers/images/230.jpg,flowers/images/166.jpg,19,Reighlyn,001,2020-11-20_14h23.07.160,test1,2020.2.5,MacIntel,60,,,0,18,18,18,1
,,,,m,1.24185,,,,,,flowers/images/338.jpg,flowers/images/33.jpg,20,Reighlyn,001,2020-11-20_14h23.07.160,test1,2020.2.5,MacIntel,60,,,0,19,19,19,1
,,,,m,1.512035,,,,,,flowers/images/337.jpg,flowers/images/193.jpg,21,Reighlyn,001,2020-11-20_14h23.07.160,test1,2020.2.5,MacIntel,60,,,0,20,20,20,1
,,,,m,1.59364,,,,,,flowers/images/83.jpg,flowers/images/339.jpg,22,Reighlyn,001,2020-11-20_14h23.07.160,test1,2020.2.5,MacIntel,60,,,0,21,21,21,1
,,,,m,2.12865,,,,,,flowers/images/190.jpg,flowers/images/99.jpg,23,Reighlyn,001,2020-11-20_14h23.07.160,test1,2020.2.5,MacIntel,60,,,0,22,22,22,1
,,,,m,1.841405,,,,,,flowers/images/257.jpg,flowers/images/369.jpg,24,Reighlyn,001,2020-11-20_14h23.07.160,test1,2020.2.5,MacIntel,60,,,0,23,23,23,1
,,,,m,1.440345,,,,,,flowers/images/280.jpg,flowers/images/355.jpg,25,Reighlyn,001,2020-11-20_14h23.07.160,test1,2020.2.5,MacIntel,60,,,0,24,24,24,1
,,,,z,1.47632,,,,,,flowers/images/105.jpg,flowers/images/338.jpg,26,Reighlyn,001,2020-11-20_14h23.07.160,test1,2020.2.5,MacIntel,60,,,0,25,25,25,1
,,,,m,1.35898,,,,,,flowers/images/202.jpg,flowers/images/3.jpg,27,Reighlyn,001,2020-11-20_14h23.07.160,test1,2020.2.5,MacIntel,60,,,0,26,26,26,1
,,,,z,1.89756,,,,,,flowers/images/212.jpg,flowers/images/38.jpg,28,Reighlyn,001,2020-11-20_14h23.07.160,test1,2020.2.5,MacIntel,60,,,0,27,27,27,1
,,,,z,2.62316,,,,,,flowers/images/152.jpg,flowers/images/0.jpg,29,Reighlyn,001,2020-11-20_14h23.07.160,test1,2020.2.5,MacIntel,60,,,0,28,28,28,1
,,,,m,1.845375,,,,,,flowers/images/170.jpg,flowers/images/296.jpg,30,Reighlyn,001,2020-11-20_14h23.07.160,test1,2020.2.5,MacIntel,60,,,0,29,29,29,1
,,,,z,2.36574,,,,,,flowers/images/74.jpg,flowers/images/80.jpg,31,Reighlyn,001,2020-11-20_14h23.07.160,test1,2020.2.5,MacIntel,60,,,0,30,30,30,1
,,,,m,1.52046,,,,,,flowers/images/226.jpg,flowers/images/117.jpg,32,Reighlyn,001,2020-11-20_14h23.07.160,test1,2020.2.5,MacIntel,60,,,0,31,31,31,1
,,,,m,0.967925,,,,,,flowers/images/1.jpg,flowers/images/19.jpg,33,Reighlyn,001,2020-11-20_14h23.07.160,test1,2020.2.5,MacIntel,60,,,0,32,32,32,1
,,,,m,1.54887,,,,,,flowers/images/182.jpg,flowers/images/335.jpg,34,Reighlyn,001,2020-11-20_14h23.07.160,test1,2020.2.5,MacIntel,60,,,0,33,33,33,1
,,,,m,1.594385,,,,,,flowers/images/245.jpg,flowers/images/62.jpg,35,Reighlyn,001,2020-11-20_14h23.07.160,test1,2020.2.5,MacIntel,60,,,0,34,34,34,1
,,,,m,1.09572,,,,,,flowers/images/167.jpg,flowers/images/49.jpg,36,Reighlyn,001,2020-11-20_14h23.07.160,test1,2020.2.5,MacIntel,60,,,0,35,35,35,1
,,,,z,1.54721,,,,,,flowers/images/38.jpg,flowers/images/250.jpg,37,Reighlyn,001,2020-11-20_14h23.07.160,test1,2020.2.5,MacIntel,60,,,0,36,36,36,1
,,,,m,1.35353,,,,,,flowers/images/124.jpg,flowers/images/324.jpg,38,Reighlyn,001,2020-11-20_14h23.07.160,test1,2020.2.5,MacIntel,60,,,0,37,37,37,1
,,,,m,2.108375,,,,,,flowers/images/92.jpg,flowers/images/13.jpg,39,Reighlyn,001,2020-11-20_14h23.07.160,test1,2020.2.5,MacIntel,60,,,0,38,38,38,1
,,,,m,1.45687,,,,,,flowers/images/120.jpg,flowers/images/374.jpg,40,Reighlyn,001,2020-11-20_14h23.07.160,test1,2020.2.5,MacIntel,60,,,0,39,39,39,1
,,,,z,1.47935,,,,,,flowers/images/350.jpg,flowers/images/100.jpg,41,Reighlyn,001,2020-11-20_14h23.07.160,test1,2020.2.5,MacIntel,60,,,0,40,40,40,1
,,,,z,1.45349,,,,,,flowers/images/68.jpg,flowers/images/236.jpg,42,Reighlyn,001,2020-11-20_14h23.07.160,test1,2020.2.5,MacIntel,60,,,0,41,41,41,1
,,,,z,1.51464,,,,,,flowers/images/5.jpg,flowers/images/340.jpg,43,Reighlyn,001,2020-11-20_14h23.07.160,test1,2020.2.5,MacIntel,60,,,0,42,42,42,1
,,,,m,2.381015,,,,,,flowers/images/99.jpg,flowers/images/313.jpg,44,Reighlyn,001,2020-11-20_14h23.07.160,test1,2020.2.5,MacIntel,60,,,0,43,43,43,1
,,,,z,1.71434,,,,,,flowers/images/229.jpg,flowers/images/177.jpg,45,Reighlyn,001,2020-11-20_14h23.07.160,test1,2020.2.5,MacIntel,60,,,0,44,44,44,1
,,,,z,1.097495,,,,,,flowers/images/361.jpg,flowers/images/383.jpg,46,Reighlyn,001,2020-11-20_14h23.07.160,test1,2020.2.5,MacIntel,60,,,0,45,45,45,1
,,,,z,1.823755,,,,,,flowers/images/129.jpg,flowers/images/398.jpg,47,Reighlyn,001,2020-11-20_14h23.07.160,test1,2020.2.5,MacIntel,60,,,0,46,46,46,1
,,,,z,1.02263,,,,,,flowers/images/228.jpg,flowers/images/159.jpg,48,Reighlyn,001,2020-11-20_14h23.07.160,test1,2020.2.5,MacIntel,60,,,0,47,47,47,1
,,,,z,1.897135,,,,,,flowers/images/65.jpg,flowers/images/312.jpg,49,Reighlyn,001,2020-11-20_14h23.07.160,test1,2020.2.5,MacIntel,60,,,0,48,48,48,1
,,,,z,3.671605,,,,,,flowers/images/73.jpg,flowers/images/163.jpg,50,Reighlyn,001,2020-11-20_14h23.07.160,test1,2020.2.5,MacIntel,60,,,0,49,49,49,1
,,,,m,2.839165,,,,,,flowers/images/224.jpg,flowers/images/278.jpg,51,Reighlyn,001,2020-11-20_14h23.07.160,test1,2020.2.5,MacIntel,60,,,0,50,50,50,1
,,,,z,1.805815,,,,,,flowers/images/312.jpg,flowers/images/185.jpg,52,Reighlyn,001,2020-11-20_14h23.07.160,test1,2020.2.5,MacIntel,60,,,0,51,51,51,1
,,,,m,1.14593,,,,,,flowers/images/256.jpg,flowers/images/112.jpg,53,Reighlyn,001,2020-11-20_14h23.07.160,test1,2020.2.5,MacIntel,60,,,0,52,52,52,1
,,,,m,0.90936,,,,,,flowers/images/26.jpg,flowers/images/261.jpg,54,Reighlyn,001,2020-11-20_14h23.07.160,test1,2020.2.5,MacIntel,60,,,0,53,53,53,1
,,,,z,1.15723,,,,,,flowers/images/51.jpg,flowers/images/106.jpg,55,Reighlyn,001,2020-11-20_14h23.07.160,test1,2020.2.5,MacIntel,60,,,0,54,54,54,1
,,,,z,0.95565,,,,,,flowers/images/371.jpg,flowers/images/160.jpg,56,Reighlyn,001,2020-11-20_14h23.07.160,test1,2020.2.5,MacIntel,60,,,0,55,55,55,1
,,,,m,1.31048,,,,,,flowers/images/59.jpg,flowers/images/257.jpg,57,Reighlyn,001,2020-11-20_14h23.07.160,test1,2020.2.5,MacIntel,60,,,0,56,56,56,1
,,,,z,1.13437,,,,,,flowers/images/347.jpg,flowers/images/190.jpg,58,Reighlyn,001,2020-11-20_14h23.07.160,test1,2020.2.5,MacIntel,60,,,0,57,57,57,1
,,,,z,2.300685,,,,,,flowers/images/8.jpg,flowers/images/209.jpg,59,Reighlyn,001,2020-11-20_14h23.07.160,test1,2020.2.5,MacIntel,60,,,0,58,58,58,1
,,,,m,1.833175,,,,,,flowers/images/278.jpg,flowers/images/31.jpg,60,Reighlyn,001,2020-11-20_14h23.07.160,test1,2020.2.5,MacIntel,60,,,0,59,59,59,1
,,,,z,1.87075,,,,,,flowers/images/262.jpg,flowers/images/325.jpg,61,Reighlyn,001,2020-11-20_14h23.07.160,test1,2020.2.5,MacIntel,60,,,0,60,60,60,1
,,,,z,4.141845,,,,,,flowers/images/273.jpg,flowers/images/83.jpg,62,Reighlyn,001,2020-11-20_14h23.07.160,test1,2020.2.5,MacIntel,60,,,0,61,61,61,1
,,,,m,1.554535,,,,,,flowers/images/52.jpg,flowers/images/17.jpg,63,Reighlyn,001,2020-11-20_14h23.07.160,test1,2020.2.5,MacIntel,60,,,0,62,62,62,1
,,,,m,3.36559,,,,,,flowers/images/243.jpg,flowers/images/27.jpg,64,Reighlyn,001,2020-11-20_14h23.07.160,test1,2020.2.5,MacIntel,60,,,0,63,63,63,1
,,,,m,0.974075,,,,,,flowers/images/175.jpg,flowers/images/192.jpg,65,Reighlyn,001,2020-11-20_14h23.07.160,test1,2020.2.5,MacIntel,60,,,0,64,64,64,1
,,,,m,2.25854,,,,,,flowers/images/53.jpg,flowers/images/199.jpg,66,Reighlyn,001,2020-11-20_14h23.07.160,test1,2020.2.5,MacIntel,60,,,0,65,65,65,1
,,,,m,1.446115,,,,,,flowers/images/316.jpg,flowers/images/381.jpg,67,Reighlyn,001,2020-11-20_14h23.07.160,test1,2020.2.5,MacIntel,60,,,0,66,66,66,1
,,,,z,1.201875,,,,,,flowers/images/249.jpg,flowers/images/213.jpg,68,Reighlyn,001,2020-11-20_14h23.07.160,test1,2020.2.5,MacIntel,60,,,0,67,67,67,1
,,,,m,1.996185,,,,,,flowers/images/70.jpg,flowers/images/60.jpg,69,Reighlyn,001,2020-11-20_14h23.07.160,test1,2020.2.5,MacIntel,60,,,0,68,68,68,1
,,,,m,1.221695,,,,,,flowers/images/300.jpg,flowers/images/386.jpg,70,Reighlyn,001,2020-11-20_14h23.07.160,test1,2020.2.5,MacIntel,60,,,0,69,69,69,1
,,,,z,2.10587,,,,,,flowers/images/162.jpg,flowers/images/149.jpg,71,Reighlyn,001,2020-11-20_14h23.07.160,test1,2020.2.5,MacIntel,60,,,0,70,70,70,1
,,,,m,2.122555,,,,,,flowers/images/146.jpg,flowers/images/336.jpg,72,Reighlyn,001,2020-11-20_14h23.07.160,test1,2020.2.5,MacIntel,60,,,0,71,71,71,1
,,,,z,2.3496,,,,,,flowers/images/115.jpg,flowers/images/120.jpg,73,Reighlyn,001,2020-11-20_14h23.07.160,test1,2020.2.5,MacIntel,60,,,0,72,72,72,1
,,,,z,1.364695,,,,,,flowers/images/311.jpg,flowers/images/123.jpg,74,Reighlyn,001,2020-11-20_14h23.07.160,test1,2020.2.5,MacIntel,60,,,0,73,73,73,1
,,,,z,1.72936,,,,,,flowers/images/33.jpg,flowers/images/146.jpg,75,Reighlyn,001,2020-11-20_14h23.07.160,test1,2020.2.5,MacIntel,60,,,0,74,74,74,1
,,,,m,5.928645,,,,,,flowers/images/78.jpg,flowers/images/352.jpg,76,Reighlyn,001,2020-11-20_14h23.07.160,test1,2020.2.5,MacIntel,60,,,0,75,75,75,1
,,,,m,1.05046,,,,,,flowers/images/43.jpg,flowers/images/50.jpg,77,Reighlyn,001,2020-11-20_14h23.07.160,test1,2020.2.5,MacIntel,60,,,0,76,76,76,1
,,,,m,1.961125,,,,,,flowers/images/373.jpg,flowers/images/78.jpg,78,Reighlyn,001,2020-11-20_14h23.07.160,test1,2020.2.5,MacIntel,60,,,0,77,77,77,1
,,,,z,1.172375,,,,,,flowers/images/233.jpg,flowers/images/134.jpg,79,Reighlyn,001,2020-11-20_14h23.07.160,test1,2020.2.5,MacIntel,60,,,0,78,78,78,1
,,,,m,1.087395,,,,,,flowers/images/386.jpg,flowers/images/390.jpg,80,Reighlyn,001,2020-11-20_14h23.07.160,test1,2020.2.5,MacIntel,60,,,0,79,79,79,1
,,,,z,1.814555,,,,,,flowers/images/205.jpg,flowers/images/388.jpg,81,Reighlyn,001,2020-11-20_14h23.07.160,test1,2020.2.5,MacIntel,60,,,0,80,80,80,1
,,,,m,1.0302,,,,,,flowers/images/130.jpg,flowers/images/48.jpg,82,Reighlyn,001,2020-11-20_14h23.07.160,test1,2020.2.5,MacIntel,60,,,0,81,81,81,1
,,,,z,1.731485,,,,,,flowers/images/187.jpg,flowers/images/253.jpg,83,Reighlyn,001,2020-11-20_14h23.07.160,test1,2020.2.5,MacIntel,60,,,0,82,82,82,1
,,,,z,1.350985,,,,,,flowers/images/232.jpg,flowers/images/141.jpg,84,Reighlyn,001,2020-11-20_14h23.07.160,test1,2020.2.5,MacIntel,60,,,0,83,83,83,1
,,,,z,2.27149,,,,,,flowers/images/253.jpg,flowers/images/71.jpg,85,Reighlyn,001,2020-11-20_14h23.07.160,test1,2020.2.5,MacIntel,60,,,0,84,84,84,1
,,,,z,1.47295,,,,,,flowers/images/332.jpg,flowers/images/322.jpg,86,Reighlyn,001,2020-11-20_14h23.07.160,test1,2020.2.5,MacIntel,60,,,0,85,85,85,1
,,,,z,2.028935,,,,,,flowers/images/103.jpg,flowers/images/182.jpg,87,Reighlyn,001,2020-11-20_14h23.07.160,test1,2020.2.5,MacIntel,60,,,0,86,86,86,1
,,,,z,0.318145,,,,,,flowers/images/271.jpg,flowers/images/103.jpg,88,Reighlyn,001,2020-11-20_14h23.07.160,test1,2020.2.5,MacIntel,60,,,0,87,87,87,1
,,,,z,1.122725,,,,,,flowers/images/63.jpg,flowers/images/227.jpg,89,Reighlyn,001,2020-11-20_14h23.07.160,test1,2020.2.5,MacIntel,60,,,0,88,88,88,1
,,,,m,1.3646,,,,,,flowers/images/382.jpg,flowers/images/359.jpg,90,Reighlyn,001,2020-11-20_14h23.07.160,test1,2020.2.5,MacIntel,60,,,0,89,89,89,1
,,,,z,1.362535,,,,,,flowers/images/252.jpg,flowers/images/87.jpg,91,Reighlyn,001,2020-11-20_14h23.07.160,test1,2020.2.5,MacIntel,60,,,0,90,90,90,1
,,,,m,1.23164,,,,,,flowers/images/101.jpg,flowers/images/196.jpg,92,Reighlyn,001,2020-11-20_14h23.07.160,test1,2020.2.5,MacIntel,60,,,0,91,91,91,1
,,,,m,1.436605,,,,,,flowers/images/104.jpg,flowers/images/270.jpg,93,Reighlyn,001,2020-11-20_14h23.07.160,test1,2020.2.5,MacIntel,60,,,0,92,92,92,1
,,,,z,1.822165,,,,,,flowers/images/270.jpg,flowers/images/108.jpg,94,Reighlyn,001,2020-11-20_14h23.07.160,test1,2020.2.5,MacIntel,60,,,0,93,93,93,1
,,,,m,2.11354,,,,,,flowers/images/0.jpg,flowers/images/143.jpg,95,Reighlyn,001,2020-11-20_14h23.07.160,test1,2020.2.5,MacIntel,60,,,0,94,94,94,1
,,,,z,0.746,,,,,,flowers/images/348.jpg,flowers/images/276.jpg,96,Reighlyn,001,2020-11-20_14h23.07.160,test1,2020.2.5,MacIntel,60,,,0,95,95,95,1
,,,,z,1.36321,,,,,,flowers/images/251.jpg,flowers/images/55.jpg,97,Reighlyn,001,2020-11-20_14h23.07.160,test1,2020.2.5,MacIntel,60,,,0,96,96,96,1
,,,,m,1.262275,,,,,,flowers/images/119.jpg,flowers/images/43.jpg,98,Reighlyn,001,2020-11-20_14h23.07.160,test1,2020.2.5,MacIntel,60,,,0,97,97,97,1
,,,,m,1.231925,,,,,,flowers/images/158.jpg,flowers/images/46.jpg,99,Reighlyn,001,2020-11-20_14h23.07.160,test1,2020.2.5,MacIntel,60,,,0,98,98,98,1
,,,,z,1.77924,,,,,,flowers/images/297.jpg,flowers/images/205.jpg,100,Reighlyn,001,2020-11-20_14h23.07.160,test1,2020.2.5,MacIntel,60,,,0,99,99,99,1
,,,,m,1.39064,,,,,,flowers/images/25.jpg,flowers/images/54.jpg,101,Reighlyn,001,2020-11-20_14h23.07.160,test1,2020.2.5,MacIntel,60,,,0,100,100,100,1
,,,,m,2.47052,,,,,,flowers/images/67.jpg,flowers/images/331.jpg,102,Reighlyn,001,2020-11-20_14h23.07.160,test1,2020.2.5,MacIntel,60,,,0,101,101,101,1
,,,,z,1.285895,,,,,,flowers/images/366.jpg,flowers/images/372.jpg,103,Reighlyn,001,2020-11-20_14h23.07.160,test1,2020.2.5,MacIntel,60,,,0,102,102,102,1
,,,,z,0.23538,,,,,,flowers/images/4.jpg,flowers/images/220.jpg,104,Reighlyn,001,2020-11-20_14h23.07.160,test1,2020.2.5,MacIntel,60,,,0,103,103,103,1
,,,,z,2.07499,,,,,,flowers/images/90.jpg,flowers/images/148.jpg,105,Reighlyn,001,2020-11-20_14h23.07.160,test1,2020.2.5,MacIntel,60,,,0,104,104,104,1
,,,,m,1.19622,,,,,,flowers/images/198.jpg,flowers/images/380.jpg,106,Reighlyn,001,2020-11-20_14h23.07.160,test1,2020.2.5,MacIntel,60,,,0,105,105,105,1
,,,,m,1.060965,,,,,,flowers/images/375.jpg,flowers/images/362.jpg,107,Reighlyn,001,2020-11-20_14h23.07.160,test1,2020.2.5,MacIntel,60,,,0,106,106,106,1
,,,,z,1.11989,,,,,,flowers/images/372.jpg,flowers/images/98.jpg,108,Reighlyn,001,2020-11-20_14h23.07.160,test1,2020.2.5,MacIntel,60,,,0,107,107,107,1
,,,,z,1.125065,,,,,,flowers/images/364.jpg,flowers/images/12.jpg,109,Reighlyn,001,2020-11-20_14h23.07.160,test1,2020.2.5,MacIntel,60,,,0,108,108,108,1
,,,,m,3.71433,,,,,,flowers/images/176.jpg,flowers/images/316.jpg,110,Reighlyn,001,2020-11-20_14h23.07.160,test1,2020.2.5,MacIntel,60,,,0,109,109,109,1
,,,,z,0.88862,,,,,,flowers/images/48.jpg,flowers/images/75.jpg,111,Reighlyn,001,2020-11-20_14h23.07.160,test1,2020.2.5,MacIntel,60,,,0,110,110,110,1
,,,,m,1.312895,,,,,,flowers/images/188.jpg,flowers/images/8.jpg,112,Reighlyn,001,2020-11-20_14h23.07.160,test1,2020.2.5,MacIntel,60,,,0,111,111,111,1
,,,,m,1.59121,,,,,,flowers/images/288.jpg,flowers/images/251.jpg,113,Reighlyn,001,2020-11-20_14h23.07.160,test1,2020.2.5,MacIntel,60,,,0,112,112,112,1
,,,,m,0.96212,,,,,,flowers/images/349.jpg,flowers/images/282.jpg,114,Reighlyn,001,2020-11-20_14h23.07.160,test1,2020.2.5,MacIntel,60,,,0,113,113,113,1
,,,,m,2.31636,,,,,,flowers/images/135.jpg,flowers/images/172.jpg,115,Reighlyn,001,2020-11-20_14h23.07.160,test1,2020.2.5,MacIntel,60,,,0,114,114,114,1
,,,,m,1.95465,,,,,,flowers/images/283.jpg,flowers/images/139.jpg,116,Reighlyn,001,2020-11-20_14h23.07.160,test1,2020.2.5,MacIntel,60,,,0,115,115,115,1
,,,,z,1.665525,,,,,,flowers/images/301.jpg,flowers/images/102.jpg,117,Reighlyn,001,2020-11-20_14h23.07.160,test1,2020.2.5,MacIntel,60,,,0,116,116,116,1
,,,,m,1.75973,,,,,,flowers/images/164.jpg,flowers/images/392.jpg,118,Reighlyn,001,2020-11-20_14h23.07.160,test1,2020.2.5,MacIntel,60,,,0,117,117,117,1
,,,,z,1.617905,,,,,,flowers/images/385.jpg,flowers/images/244.jpg,119,Reighlyn,001,2020-11-20_14h23.07.160,test1,2020.2.5,MacIntel,60,,,0,118,118,118,1
,,,,m,1.07686,,,,,,flowers/images/137.jpg,flowers/images/104.jpg,120,Reighlyn,001,2020-11-20_14h23.07.160,test1,2020.2.5,MacIntel,60,,,0,119,119,119,1
,,,,m,1.697945,,,,,,flowers/images/23.jpg,flowers/images/157.jpg,121,Reighlyn,001,2020-11-20_14h23.07.160,test1,2020.2.5,MacIntel,60,,,0,120,120,120,1
,,,,m,1.264295,,,,,,flowers/images/310.jpg,flowers/images/238.jpg,122,Reighlyn,001,2020-11-20_14h23.07.160,test1,2020.2.5,MacIntel,60,,,0,121,121,121,1
,,,,z,1.6332,,,,,,flowers/images/215.jpg,flowers/images/222.jpg,123,Reighlyn,001,2020-11-20_14h23.07.160,test1,2020.2.5,MacIntel,60,,,0,122,122,122,1
,,,,m,1.75476,,,,,,flowers/images/244.jpg,flowers/images/274.jpg,124,Reighlyn,001,2020-11-20_14h23.07.160,test1,2020.2.5,MacIntel,60,,,0,123,123,123,1
,,,,m,1.45029,,,,,,flowers/images/313.jpg,flowers/images/329.jpg,125,Reighlyn,001,2020-11-20_14h23.07.160,test1,2020.2.5,MacIntel,60,,,0,124,124,124,1
,,,,z,1.8675,,,,,,flowers/images/207.jpg,flowers/images/188.jpg,126,Reighlyn,001,2020-11-20_14h23.07.160,test1,2020.2.5,MacIntel,60,,,0,125,125,125,1
,,,,m,1.692675,,,,,,flowers/images/265.jpg,flowers/images/351.jpg,127,Reighlyn,001,2020-11-20_14h23.07.160,test1,2020.2.5,MacIntel,60,,,0,126,126,126,1
,,,,z,2.030595,,,,,,flowers/images/248.jpg,flowers/images/239.jpg,128,Reighlyn,001,2020-11-20_14h23.07.160,test1,2020.2.5,MacIntel,60,,,0,127,127,127,1
,,,,z,1.311415,,,,,,flowers/images/204.jpg,flowers/images/225.jpg,129,Reighlyn,001,2020-11-20_14h23.07.160,test1,2020.2.5,MacIntel,60,,,0,128,128,128,1
,,,,m,2.573955,,,,,,flowers/images/13.jpg,flowers/images/119.jpg,130,Reighlyn,001,2020-11-20_14h23.07.160,test1,2020.2.5,MacIntel,60,,,0,129,129,129,1
,,,,m,1.0634,,,,,,flowers/images/370.jpg,flowers/images/39.jpg,131,Reighlyn,001,2020-11-20_14h23.07.160,test1,2020.2.5,MacIntel,60,,,0,130,130,130,1
,,,,z,1.33415,,,,,,flowers/images/397.jpg,flowers/images/69.jpg,132,Reighlyn,001,2020-11-20_14h23.07.160,test1,2020.2.5,MacIntel,60,,,0,131,131,131,1
,,,,m,1.18093,,,,,,flowers/images/393.jpg,flowers/images/399.jpg,133,Reighlyn,001,2020-11-20_14h23.07.160,test1,2020.2.5,MacIntel,60,,,0,132,132,132,1
,,,,m,2.678825,,,,,,flowers/images/363.jpg,flowers/images/74.jpg,134,Reighlyn,001,2020-11-20_14h23.07.160,test1,2020.2.5,MacIntel,60,,,0,133,133,133,1
,,,,m,1.445375,,,,,,flowers/images/254.jpg,flowers/images/174.jpg,135,Reighlyn,001,2020-11-20_14h23.07.160,test1,2020.2.5,MacIntel,60,,,0,134,134,134,1
,,,,m,1.63342,,,,,,flowers/images/139.jpg,flowers/images/70.jpg,136,Reighlyn,001,2020-11-20_14h23.07.160,test1,2020.2.5,MacIntel,60,,,0,135,135,135,1
,,,,m,2.983995,,,,,,flowers/images/95.jpg,flowers/images/315.jpg,137,Reighlyn,001,2020-11-20_14h23.07.160,test1,2020.2.5,MacIntel,60,,,0,136,136,136,1
,,,,z,2.980175,,,,,,flowers/images/294.jpg,flowers/images/334.jpg,138,Reighlyn,001,2020-11-20_14h23.07.160,test1,2020.2.5,MacIntel,60,,,0,137,137,137,1
,,,,z,1.13598,,,,,,flowers/images/174.jpg,flowers/images/171.jpg,139,Reighlyn,001,2020-11-20_14h23.07.160,test1,2020.2.5,MacIntel,60,,,0,138,138,138,1
,,,,m,1.16662,,,,,,flowers/images/57.jpg,flowers/images/326.jpg,140,Reighlyn,001,2020-11-20_14h23.07.160,test1,2020.2.5,MacIntel,60,,,0,139,139,139,1
,,,,z,1.72398,,,,,,flowers/images/246.jpg,flowers/images/82.jpg,141,Reighlyn,001,2020-11-20_14h23.07.160,test1,2020.2.5,MacIntel,60,,,0,140,140,140,1
,,,,m,2.71865,,,,,,flowers/images/16.jpg,flowers/images/45.jpg,142,Reighlyn,001,2020-11-20_14h23.07.160,test1,2020.2.5,MacIntel,60,,,0,141,141,141,1
,,,,z,2.12406,,,,,,flowers/images/380.jpg,flowers/images/150.jpg,143,Reighlyn,001,2020-11-20_14h23.07.160,test1,2020.2.5,MacIntel,60,,,0,142,142,142,1
,,,,m,1.681565,,,,,,flowers/images/109.jpg,flowers/images/350.jpg,144,Reighlyn,001,2020-11-20_14h23.07.160,test1,2020.2.5,MacIntel,60,,,0,143,143,143,1
,,,,z,3.461125,,,,,,flowers/images/223.jpg,flowers/images/366.jpg,145,Reighlyn,001,2020-11-20_14h23.07.160,test1,2020.2.5,MacIntel,60,,,0,144,144,144,1
,,,,m,1.564895,,,,,,flowers/images/60.jpg,flowers/images/194.jpg,146,Reighlyn,001,2020-11-20_14h23.07.160,test1,2020.2.5,MacIntel,60,,,0,145,145,145,1
,,,,m,4.877465,,,,,,flowers/images/268.jpg,flowers/images/332.jpg,147,Reighlyn,001,2020-11-20_14h23.07.160,test1,2020.2.5,MacIntel,60,,,0,146,146,146,1
,,,,z,2.139115,,,,,,flowers/images/388.jpg,flowers/images/319.jpg,148,Reighlyn,001,2020-11-20_14h23.07.160,test1,2020.2.5,MacIntel,60,,,0,147,147,147,1
,,,,m,1.091575,,,,,,flowers/images/356.jpg,flowers/images/337.jpg,149,Reighlyn,001,2020-11-20_14h23.07.160,test1,2020.2.5,MacIntel,60,,,0,148,148,148,1
,,,,m,0.914475,,,,,,flowers/images/384.jpg,flowers/images/344.jpg,150,Reighlyn,001,2020-11-20_14h23.07.160,test1,2020.2.5,MacIntel,60,,,0,149,149,149,1
,,,,m,0.982805,,,,,,flowers/images/333.jpg,flowers/images/346.jpg,151,Reighlyn,001,2020-11-20_14h23.07.160,test1,2020.2.5,MacIntel,60,,,0,150,150,150,1
,,,,m,1.351535,,,,,,flowers/images/24.jpg,flowers/images/116.jpg,152,Reighlyn,001,2020-11-20_14h23.07.160,test1,2020.2.5,MacIntel,60,,,0,151,151,151,1
,,,,z,1.40067,,,,,,flowers/images/220.jpg,flowers/images/235.jpg,153,Reighlyn,001,2020-11-20_14h23.07.160,test1,2020.2.5,MacIntel,60,,,0,152,152,152,1
,,,,z,2.157925,,,,,,flowers/images/269.jpg,flowers/images/198.jpg,154,Reighlyn,001,2020-11-20_14h23.07.160,test1,2020.2.5,MacIntel,60,,,0,153,153,153,1
,,,,z,2.49562,,,,,,flowers/images/107.jpg,flowers/images/1.jpg,155,Reighlyn,001,2020-11-20_14h23.07.160,test1,2020.2.5,MacIntel,60,,,0,154,154,154,1
,,,,z,1.00352,,,,,,flowers/images/314.jpg,flowers/images/147.jpg,156,Reighlyn,001,2020-11-20_14h23.07.160,test1,2020.2.5,MacIntel,60,,,0,155,155,155,1
,,,,m,1.31199,,,,,,flowers/images/117.jpg,flowers/images/258.jpg,157,Reighlyn,001,2020-11-20_14h23.07.160,test1,2020.2.5,MacIntel,60,,,0,156,156,156,1
,,,,m,1.47358,,,,,,flowers/images/41.jpg,flowers/images/214.jpg,158,Reighlyn,001,2020-11-20_14h23.07.160,test1,2020.2.5,MacIntel,60,,,0,157,157,157,1
,,,,z,1.00277,,,,,,flowers/images/306.jpg,flowers/images/118.jpg,159,Reighlyn,001,2020-11-20_14h23.07.160,test1,2020.2.5,MacIntel,60,,,0,158,158,158,1
,,,,z,1.09634,,,,,,flowers/images/299.jpg,flowers/images/40.jpg,160,Reighlyn,001,2020-11-20_14h23.07.160,test1,2020.2.5,MacIntel,60,,,0,159,159,159,1
,,,,z,1.181865,,,,,,flowers/images/50.jpg,flowers/images/291.jpg,161,Reighlyn,001,2020-11-20_14h23.07.160,test1,2020.2.5,MacIntel,60,,,0,160,160,160,1
,,,,z,1.14645,,,,,,flowers/images/238.jpg,flowers/images/129.jpg,162,Reighlyn,001,2020-11-20_14h23.07.160,test1,2020.2.5,MacIntel,60,,,0,161,161,161,1
,,,,z,1.111355,,,,,,flowers/images/30.jpg,flowers/images/136.jpg,163,Reighlyn,001,2020-11-20_14h23.07.160,test1,2020.2.5,MacIntel,60,,,0,162,162,162,1
,,,,m,1.04985,,,,,,flowers/images/211.jpg,flowers/images/306.jpg,164,Reighlyn,001,2020-11-20_14h23.07.160,test1,2020.2.5,MacIntel,60,,,0,163,163,163,1
,,,,z,1.36988,,,,,,flowers/images/227.jpg,flowers/images/57.jpg,165,Reighlyn,001,2020-11-20_14h23.07.160,test1,2020.2.5,MacIntel,60,,,0,164,164,164,1
,,,,m,1.312055,,,,,,flowers/images/242.jpg,flowers/images/61.jpg,166,Reighlyn,001,2020-11-20_14h23.07.160,test1,2020.2.5,MacIntel,60,,,0,165,165,165,1
,,,,m,3.163235,,,,,,flowers/images/387.jpg,flowers/images/263.jpg,167,Reighlyn,001,2020-11-20_14h23.07.160,test1,2020.2.5,MacIntel,60,,,0,166,166,166,1
,,,,z,1.179375,,,,,,flowers/images/193.jpg,flowers/images/367.jpg,168,Reighlyn,001,2020-11-20_14h23.07.160,test1,2020.2.5,MacIntel,60,,,0,167,167,167,1
,,,,m,1.071825,,,,,,flowers/images/231.jpg,flowers/images/18.jpg,169,Reighlyn,001,2020-11-20_14h23.07.160,test1,2020.2.5,MacIntel,60,,,0,168,168,168,1
,,,,m,1.26597,,,,,,flowers/images/154.jpg,flowers/images/32.jpg,170,Reighlyn,001,2020-11-20_14h23.07.160,test1,2020.2.5,MacIntel,60,,,0,169,169,169,1
,,,,m,1.220735,,,,,,flowers/images/79.jpg,flowers/images/301.jpg,171,Reighlyn,001,2020-11-20_14h23.07.160,test1,2020.2.5,MacIntel,60,,,0,170,170,170,1
,,,,z,1.16741,,,,,,flowers/images/263.jpg,flowers/images/210.jpg,172,Reighlyn,001,2020-11-20_14h23.07.160,test1,2020.2.5,MacIntel,60,,,0,171,171,171,1
,,,,z,1.51678,,,,,,flowers/images/383.jpg,flowers/images/354.jpg,173,Reighlyn,001,2020-11-20_14h23.07.160,test1,2020.2.5,MacIntel,60,,,0,172,172,172,1
,,,,m,1.32728,,,,,,flowers/images/290.jpg,flowers/images/212.jpg,174,Reighlyn,001,2020-11-20_14h23.07.160,test1,2020.2.5,MacIntel,60,,,0,173,173,173,1
,,,,z,1.357565,,,,,,flowers/images/206.jpg,flowers/images/397.jpg,175,Reighlyn,001,2020-11-20_14h23.07.160,test1,2020.2.5,MacIntel,60,,,0,174,174,174,1
,,,,z,1.259845,,,,,,flowers/images/317.jpg,flowers/images/297.jpg,176,Reighlyn,001,2020-11-20_14h23.07.160,test1,2020.2.5,MacIntel,60,,,0,175,175,175,1
,,,,m,1.09385,,,,,,flowers/images/329.jpg,flowers/images/255.jpg,177,Reighlyn,001,2020-11-20_14h23.07.160,test1,2020.2.5,MacIntel,60,,,0,176,176,176,1
,,,,z,1.425935,,,,,,flowers/images/225.jpg,flowers/images/91.jpg,178,Reighlyn,001,2020-11-20_14h23.07.160,test1,2020.2.5,MacIntel,60,,,0,177,177,177,1
,,,,z,1.28518,,,,,,flowers/images/11.jpg,flowers/images/256.jpg,179,Reighlyn,001,2020-11-20_14h23.07.160,test1,2020.2.5,MacIntel,60,,,0,178,178,178,1
,,,,m,1.937885,,,,,,flowers/images/234.jpg,flowers/images/64.jpg,180,Reighlyn,001,2020-11-20_14h23.07.160,test1,2020.2.5,MacIntel,60,,,0,179,179,179,1
,,,,z,1.40423,,,,,,flowers/images/342.jpg,flowers/images/26.jpg,181,Reighlyn,001,2020-11-20_14h23.07.160,test1,2020.2.5,MacIntel,60,,,0,180,180,180,1
,,,,z,1.082525,,,,,,flowers/images/391.jpg,flowers/images/286.jpg,182,Reighlyn,001,2020-11-20_14h23.07.160,test1,2020.2.5,MacIntel,60,,,0,181,181,181,1
,,,,z,3.070735,,,,,,flowers/images/221.jpg,flowers/images/268.jpg,183,Reighlyn,001,2020-11-20_14h23.07.160,test1,2020.2.5,MacIntel,60,,,0,182,182,182,1
,,,,m,1.166825,,,,,,flowers/images/210.jpg,flowers/images/84.jpg,184,Reighlyn,001,2020-11-20_14h23.07.160,test1,2020.2.5,MacIntel,60,,,0,183,183,183,1
,,,,m,0.884675,,,,,,flowers/images/138.jpg,flowers/images/77.jpg,185,Reighlyn,001,2020-11-20_14h23.07.160,test1,2020.2.5,MacIntel,60,,,0,184,184,184,1
,,,,z,1.39661,,,,,,flowers/images/315.jpg,flowers/images/269.jpg,186,Reighlyn,001,2020-11-20_14h23.07.160,test1,2020.2.5,MacIntel,60,,,0,185,185,185,1
,,,,z,1.082155,,,,,,flowers/images/308.jpg,flowers/images/265.jpg,187,Reighlyn,001,2020-11-20_14h23.07.160,test1,2020.2.5,MacIntel,60,,,0,186,186,186,1
,,,,z,0.95102,,,,,,flowers/images/88.jpg,flowers/images/56.jpg,188,Reighlyn,001,2020-11-20_14h23.07.160,test1,2020.2.5,MacIntel,60,,,0,187,187,187,1
,,,,z,1.114855,,,,,,flowers/images/102.jpg,flowers/images/126.jpg,189,Reighlyn,001,2020-11-20_14h23.07.160,test1,2020.2.5,MacIntel,60,,,0,188,188,188,1
,,,,m,1.18792,,,,,,flowers/images/132.jpg,flowers/images/389.jpg,190,Reighlyn,001,2020-11-20_14h23.07.160,test1,2020.2.5,MacIntel,60,,,0,189,189,189,1
,,,,z,1.127965,,,,,,flowers/images/186.jpg,flowers/images/144.jpg,191,Reighlyn,001,2020-11-20_14h23.07.160,test1,2020.2.5,MacIntel,60,,,0,190,190,190,1
,,,,m,1.184985,,,,,,flowers/images/284.jpg,flowers/images/92.jpg,192,Reighlyn,001,2020-11-20_14h23.07.160,test1,2020.2.5,MacIntel,60,,,0,191,191,191,1
,,,,z,0.940695,,,,,,flowers/images/396.jpg,flowers/images/24.jpg,193,Reighlyn,001,2020-11-20_14h23.07.160,test1,2020.2.5,MacIntel,60,,,0,192,192,192,1
,,,,m,1.103625,,,,,,flowers/images/374.jpg,flowers/images/287.jpg,194,Reighlyn,001,2020-11-20_14h23.07.160,test1,2020.2.5,MacIntel,60,,,0,193,193,193,1
,,,,m,1.197155,,,,,,flowers/images/140.jpg,flowers/images/267.jpg,195,Reighlyn,001,2020-11-20_14h23.07.160,test1,2020.2.5,MacIntel,60,,,0,194,194,194,1
,,,,m,1.414645,,,,,,flowers/images/267.jpg,flowers/images/343.jpg,196,Reighlyn,001,2020-11-20_14h23.07.160,test1,2020.2.5,MacIntel,60,,,0,195,195,195,1
,,,,m,1.21845,,,,,,flowers/images/286.jpg,flowers/images/35.jpg,197,Reighlyn,001,2020-11-20_14h23.07.160,test1,2020.2.5,MacIntel,60,,,0,196,196,196,1
,,,,m,1.26412,,,,,,flowers/images/143.jpg,flowers/images/391.jpg,198,Reighlyn,001,2020-11-20_14h23.07.160,test1,2020.2.5,MacIntel,60,,,0,197,197,197,1
,,,,z,1.52746,,,,,,flowers/images/196.jpg,flowers/images/155.jpg,199,Reighlyn,001,2020-11-20_14h23.07.160,test1,2020.2.5,MacIntel,60,,,0,198,198,198,1
,,,,z,3.409315,,,,,,flowers/images/281.jpg,flowers/images/394.jpg,200,Reighlyn,001,2020-11-20_14h23.07.160,test1,2020.2.5,MacIntel,60,,,0,199,199,199,1
