key_resp.keys,key_resp.rt,key_resp_3.keys,key_resp_3.rt,key_resp_2.keys,key_resp_2.rt,trials.thisRepN,trials.thisTrialN,trials.thisN,trials.thisIndex,trials.ran,image_left,image_right,trial_num,participant,session,date,expName,psychopyVersion,OS,frameRate
space,7.929095,space,4.37218,z,12.127075,0,0,0,0,1,flowers/images/125.jpg,flowers/images/165.jpg,1,s,001,2020-11-19_21h56.53.140,test1,2020.2.5,Win32,60
,,,,m,3.8612,0,1,1,1,1,flowers/images/168.jpg,flowers/images/195.jpg,2,s,001,2020-11-19_21h56.53.140,test1,2020.2.5,Win32,60
,,,,m,4.696365,0,2,2,2,1,flowers/images/114.jpg,flowers/images/131.jpg,3,s,001,2020-11-19_21h56.53.140,test1,2020.2.5,Win32,60
,,,,z,3.019845,0,3,3,3,1,flowers/images/110.jpg,flowers/images/241.jpg,4,s,001,2020-11-19_21h56.53.140,test1,2020.2.5,Win32,60
,,,,z,2.66078,0,4,4,4,1,flowers/images/157.jpg,flowers/images/170.jpg,5,s,001,2020-11-19_21h56.53.140,test1,2020.2.5,Win32,60
,,,,m,2.23447,0,5,5,5,1,flowers/images/291.jpg,flowers/images/302.jpg,6,s,001,2020-11-19_21h56.53.140,test1,2020.2.5,Win32,60
,,,,z,5.123795,0,6,6,6,1,flowers/images/335.jpg,flowers/images/272.jpg,7,s,001,2020-11-19_21h56.53.140,test1,2020.2.5,Win32,60
,,,,m,2.01884,0,7,7,7,1,flowers/images/122.jpg,flowers/images/72.jpg,8,s,001,2020-11-19_21h56.53.140,test1,2020.2.5,Win32,60
,,,,m,0.98057,0,8,8,8,1,flowers/images/240.jpg,flowers/images/67.jpg,9,s,001,2020-11-19_21h56.53.140,test1,2020.2.5,Win32,60
,,,,z,1.527765,0,9,9,9,1,flowers/images/324.jpg,flowers/images/180.jpg,10,s,001,2020-11-19_21h56.53.140,test1,2020.2.5,Win32,60
,,,,m,1.7989,0,10,10,10,1,flowers/images/148.jpg,flowers/images/275.jpg,11,s,001,2020-11-19_21h56.53.140,test1,2020.2.5,Win32,60
,,,,z,2.4491,0,11,11,11,1,flowers/images/61.jpg,flowers/images/2.jpg,12,s,001,2020-11-19_21h56.53.140,test1,2020.2.5,Win32,60
,,,,m,1.408845,0,12,12,12,1,flowers/images/20.jpg,flowers/images/378.jpg,13,s,001,2020-11-19_21h56.53.140,test1,2020.2.5,Win32,60
,,,,m,2.22393,0,13,13,13,1,flowers/images/181.jpg,flowers/images/363.jpg,14,s,001,2020-11-19_21h56.53.140,test1,2020.2.5,Win32,60
,,,,m,1.491095,0,14,14,14,1,flowers/images/87.jpg,flowers/images/187.jpg,15,s,001,2020-11-19_21h56.53.140,test1,2020.2.5,Win32,60
,,,,m,1.78529,0,15,15,15,1,flowers/images/150.jpg,flowers/images/281.jpg,16,s,001,2020-11-19_21h56.53.140,test1,2020.2.5,Win32,60
,,,,z,1.220885,0,16,16,16,1,flowers/images/112.jpg,flowers/images/176.jpg,17,s,001,2020-11-19_21h56.53.140,test1,2020.2.5,Win32,60
,,,,m,4.541445,0,17,17,17,1,flowers/images/236.jpg,flowers/images/243.jpg,18,s,001,2020-11-19_21h56.53.140,test1,2020.2.5,Win32,60
,,,,m,1.43496,0,18,18,18,1,flowers/images/133.jpg,flowers/images/247.jpg,19,s,001,2020-11-19_21h56.53.140,test1,2020.2.5,Win32,60
,,,,m,2.75823,0,19,19,19,1,flowers/images/136.jpg,flowers/images/164.jpg,20,s,001,2020-11-19_21h56.53.140,test1,2020.2.5,Win32,60
,,,,z,2.147425,0,20,20,20,1,flowers/images/185.jpg,flowers/images/211.jpg,21,s,001,2020-11-19_21h56.53.140,test1,2020.2.5,Win32,60
,,,,m,2.366925,0,21,21,21,1,flowers/images/118.jpg,flowers/images/371.jpg,22,s,001,2020-11-19_21h56.53.140,test1,2020.2.5,Win32,60
,,,,m,3.33645,0,22,22,22,1,flowers/images/177.jpg,flowers/images/5.jpg,23,s,001,2020-11-19_21h56.53.140,test1,2020.2.5,Win32,60
,,,,z,2.124035,0,23,23,23,1,flowers/images/91.jpg,flowers/images/215.jpg,24,s,001,2020-11-19_21h56.53.140,test1,2020.2.5,Win32,60
,,,,z,1.496455,0,24,24,24,1,flowers/images/277.jpg,flowers/images/11.jpg,25,s,001,2020-11-19_21h56.53.140,test1,2020.2.5,Win32,60
,,,,m,2.179975,0,25,25,25,1,flowers/images/197.jpg,flowers/images/25.jpg,26,s,001,2020-11-19_21h56.53.140,test1,2020.2.5,Win32,60
,,,,m,4.50679,0,26,26,26,1,flowers/images/131.jpg,flowers/images/63.jpg,27,s,001,2020-11-19_21h56.53.140,test1,2020.2.5,Win32,60
,,,,m,3.448705,0,27,27,27,1,flowers/images/106.jpg,flowers/images/221.jpg,28,s,001,2020-11-19_21h56.53.140,test1,2020.2.5,Win32,60
,,,,m,3.061555,0,28,28,28,1,flowers/images/295.jpg,flowers/images/307.jpg,29,s,001,2020-11-19_21h56.53.140,test1,2020.2.5,Win32,60
,,,,z,1.20427,0,29,29,29,1,flowers/images/368.jpg,flowers/images/384.jpg,30,s,001,2020-11-19_21h56.53.140,test1,2020.2.5,Win32,60
,,,,z,4.2885,0,30,30,30,1,flowers/images/96.jpg,flowers/images/140.jpg,31,s,001,2020-11-19_21h56.53.140,test1,2020.2.5,Win32,60
,,,,z,1.387155,0,31,31,31,1,flowers/images/272.jpg,flowers/images/59.jpg,32,s,001,2020-11-19_21h56.53.140,test1,2020.2.5,Win32,60
,,,,z,1.33554,0,32,32,32,1,flowers/images/389.jpg,flowers/images/110.jpg,33,s,001,2020-11-19_21h56.53.140,test1,2020.2.5,Win32,60
,,,,m,1.081575,0,33,33,33,1,flowers/images/237.jpg,flowers/images/387.jpg,34,s,001,2020-11-19_21h56.53.140,test1,2020.2.5,Win32,60
,,,,z,1.523755,0,34,34,34,1,flowers/images/35.jpg,flowers/images/142.jpg,35,s,001,2020-11-19_21h56.53.140,test1,2020.2.5,Win32,60
,,,,m,1.09634,0,35,35,35,1,flowers/images/49.jpg,flowers/images/200.jpg,36,s,001,2020-11-19_21h56.53.140,test1,2020.2.5,Win32,60
,,,,m,3.86415,0,36,36,36,1,flowers/images/142.jpg,flowers/images/328.jpg,37,s,001,2020-11-19_21h56.53.140,test1,2020.2.5,Win32,60
,,,,z,3.753855,0,37,37,37,1,flowers/images/339.jpg,flowers/images/264.jpg,38,s,001,2020-11-19_21h56.53.140,test1,2020.2.5,Win32,60
,,,,m,3.63572,0,38,38,38,1,flowers/images/394.jpg,flowers/images/266.jpg,39,s,001,2020-11-19_21h56.53.140,test1,2020.2.5,Win32,60
,,,,z,1.89234,0,39,39,39,1,flowers/images/89.jpg,flowers/images/298.jpg,40,s,001,2020-11-19_21h56.53.140,test1,2020.2.5,Win32,60
,,,,z,0.984975,0,40,40,40,1,flowers/images/325.jpg,flowers/images/47.jpg,41,s,001,2020-11-19_21h56.53.140,test1,2020.2.5,Win32,60
,,,,m,0.93732,0,41,41,41,1,flowers/images/40.jpg,flowers/images/162.jpg,42,s,001,2020-11-19_21h56.53.140,test1,2020.2.5,Win32,60
,,,,z,1.771835,0,42,42,42,1,flowers/images/266.jpg,flowers/images/181.jpg,43,s,001,2020-11-19_21h56.53.140,test1,2020.2.5,Win32,60
,,,,m,1.722355,0,43,43,43,1,flowers/images/100.jpg,flowers/images/396.jpg,44,s,001,2020-11-19_21h56.53.140,test1,2020.2.5,Win32,60
,,,,m,2.20205,0,44,44,44,1,flowers/images/144.jpg,flowers/images/231.jpg,45,s,001,2020-11-19_21h56.53.140,test1,2020.2.5,Win32,60
,,,,z,1.32056,0,45,45,45,1,flowers/images/289.jpg,flowers/images/202.jpg,46,s,001,2020-11-19_21h56.53.140,test1,2020.2.5,Win32,60
,,,,m,2.766705,0,46,46,46,1,flowers/images/178.jpg,flowers/images/86.jpg,47,s,001,2020-11-19_21h56.53.140,test1,2020.2.5,Win32,60
,,,,m,3.501745,0,47,47,47,1,flowers/images/360.jpg,flowers/images/393.jpg,48,s,001,2020-11-19_21h56.53.140,test1,2020.2.5,Win32,60
,,,,m,1.571855,0,48,48,48,1,flowers/images/108.jpg,flowers/images/288.jpg,49,s,001,2020-11-19_21h56.53.140,test1,2020.2.5,Win32,60
,,,,m,1.051295,0,49,49,49,1,flowers/images/165.jpg,flowers/images/154.jpg,50,s,001,2020-11-19_21h56.53.140,test1,2020.2.5,Win32,60
,,,,z,3.70641,0,50,50,50,1,flowers/images/27.jpg,flowers/images/121.jpg,51,s,001,2020-11-19_21h56.53.140,test1,2020.2.5,Win32,60
,,,,z,1.22987,0,51,51,51,1,flowers/images/302.jpg,flowers/images/203.jpg,52,s,001,2020-11-19_21h56.53.140,test1,2020.2.5,Win32,60
,,,,z,2.02071,0,52,52,52,1,flowers/images/255.jpg,flowers/images/42.jpg,53,s,001,2020-11-19_21h56.53.140,test1,2020.2.5,Win32,60
,,,,m,1.185105,0,53,53,53,1,flowers/images/31.jpg,flowers/images/289.jpg,54,s,001,2020-11-19_21h56.53.140,test1,2020.2.5,Win32,60
,,,,z,4.509055,0,54,54,54,1,flowers/images/66.jpg,flowers/images/246.jpg,55,s,001,2020-11-19_21h56.53.140,test1,2020.2.5,Win32,60
,,,,z,1.208565,0,55,55,55,1,flowers/images/355.jpg,flowers/images/115.jpg,56,s,001,2020-11-19_21h56.53.140,test1,2020.2.5,Win32,60
,,,,z,0.982195,0,56,56,56,1,flowers/images/241.jpg,flowers/images/345.jpg,57,s,001,2020-11-19_21h56.53.140,test1,2020.2.5,Win32,60
,,,,m,2.001305,0,57,57,57,1,flowers/images/296.jpg,flowers/images/37.jpg,58,s,001,2020-11-19_21h56.53.140,test1,2020.2.5,Win32,60
,,,,m,1.53055,0,58,58,58,1,flowers/images/235.jpg,flowers/images/373.jpg,59,s,001,2020-11-19_21h56.53.140,test1,2020.2.5,Win32,60
,,,,m,1.590385,0,59,59,59,1,flowers/images/173.jpg,flowers/images/93.jpg,60,s,001,2020-11-19_21h56.53.140,test1,2020.2.5,Win32,60
,,,,m,1.73648,0,60,60,60,1,flowers/images/331.jpg,flowers/images/88.jpg,61,s,001,2020-11-19_21h56.53.140,test1,2020.2.5,Win32,60
,,,,m,0.914325,0,61,61,61,1,flowers/images/134.jpg,flowers/images/127.jpg,62,s,001,2020-11-19_21h56.53.140,test1,2020.2.5,Win32,60
,,,,z,0.839015,0,62,62,62,1,flowers/images/285.jpg,flowers/images/201.jpg,63,s,001,2020-11-19_21h56.53.140,test1,2020.2.5,Win32,60
,,,,m,1.744685,0,63,63,63,1,flowers/images/151.jpg,flowers/images/52.jpg,64,s,001,2020-11-19_21h56.53.140,test1,2020.2.5,Win32,60
,,,,m,1.658625,0,64,64,64,1,flowers/images/208.jpg,flowers/images/186.jpg,65,s,001,2020-11-19_21h56.53.140,test1,2020.2.5,Win32,60
,,,,m,1.36069,0,65,65,65,1,flowers/images/80.jpg,flowers/images/124.jpg,66,s,001,2020-11-19_21h56.53.140,test1,2020.2.5,Win32,60
,,,,m,0.98603,0,66,66,66,1,flowers/images/303.jpg,flowers/images/347.jpg,67,s,001,2020-11-19_21h56.53.140,test1,2020.2.5,Win32,60
,,,,m,0.9973,0,67,67,67,1,flowers/images/6.jpg,flowers/images/262.jpg,68,s,001,2020-11-19_21h56.53.140,test1,2020.2.5,Win32,60
,,,,z,1.12998,0,68,68,68,1,flowers/images/85.jpg,flowers/images/20.jpg,69,s,001,2020-11-19_21h56.53.140,test1,2020.2.5,Win32,60
,,,,m,1.790875,0,69,69,69,1,flowers/images/392.jpg,flowers/images/15.jpg,70,s,001,2020-11-19_21h56.53.140,test1,2020.2.5,Win32,60
,,,,m,2.530085,0,70,70,70,1,flowers/images/341.jpg,flowers/images/357.jpg,71,s,001,2020-11-19_21h56.53.140,test1,2020.2.5,Win32,60
,,,,m,1.168425,0,71,71,71,1,flowers/images/293.jpg,flowers/images/158.jpg,72,s,001,2020-11-19_21h56.53.140,test1,2020.2.5,Win32,60
,,,,z,1.58524,0,72,72,72,1,flowers/images/390.jpg,flowers/images/58.jpg,73,s,001,2020-11-19_21h56.53.140,test1,2020.2.5,Win32,60
,,,,z,1.76335,0,73,73,73,1,flowers/images/82.jpg,flowers/images/16.jpg,74,s,001,2020-11-19_21h56.53.140,test1,2020.2.5,Win32,60
,,,,z,1.37352,0,74,74,74,1,flowers/images/336.jpg,flowers/images/130.jpg,75,s,001,2020-11-19_21h56.53.140,test1,2020.2.5,Win32,60
,,,,z,3.076485,0,75,75,75,1,flowers/images/160.jpg,flowers/images/105.jpg,76,s,001,2020-11-19_21h56.53.140,test1,2020.2.5,Win32,60
,,,,z,2.061945,0,76,76,76,1,flowers/images/328.jpg,flowers/images/305.jpg,77,s,001,2020-11-19_21h56.53.140,test1,2020.2.5,Win32,60
,,,,m,3.594845,0,77,77,77,1,flowers/images/180.jpg,flowers/images/249.jpg,78,s,001,2020-11-19_21h56.53.140,test1,2020.2.5,Win32,60
,,,,z,1.175715,0,78,78,78,1,flowers/images/169.jpg,flowers/images/94.jpg,79,s,001,2020-11-19_21h56.53.140,test1,2020.2.5,Win32,60
,,,,m,1.11348,0,79,79,79,1,flowers/images/145.jpg,flowers/images/277.jpg,80,s,001,2020-11-19_21h56.53.140,test1,2020.2.5,Win32,60
,,,,m,3.211485,0,80,80,80,1,flowers/images/358.jpg,flowers/images/197.jpg,81,s,001,2020-11-19_21h56.53.140,test1,2020.2.5,Win32,60
,,,,m,2.319705,0,81,81,81,1,flowers/images/71.jpg,flowers/images/128.jpg,82,s,001,2020-11-19_21h56.53.140,test1,2020.2.5,Win32,60
,,,,z,1.20932,0,82,82,82,1,flowers/images/192.jpg,flowers/images/379.jpg,83,s,001,2020-11-19_21h56.53.140,test1,2020.2.5,Win32,60
,,,,m,0.99978,0,83,83,83,1,flowers/images/189.jpg,flowers/images/271.jpg,84,s,001,2020-11-19_21h56.53.140,test1,2020.2.5,Win32,60
,,,,m,2.36536,0,84,84,84,1,flowers/images/15.jpg,flowers/images/28.jpg,85,s,001,2020-11-19_21h56.53.140,test1,2020.2.5,Win32,60
,,,,m,1.64193,0,85,85,85,1,flowers/images/171.jpg,flowers/images/97.jpg,86,s,001,2020-11-19_21h56.53.140,test1,2020.2.5,Win32,60
,,,,m,2.05808,0,86,86,86,1,flowers/images/287.jpg,flowers/images/29.jpg,87,s,001,2020-11-19_21h56.53.140,test1,2020.2.5,Win32,60
,,,,m,2.97503,0,87,87,87,1,flowers/images/381.jpg,flowers/images/356.jpg,88,s,001,2020-11-19_21h56.53.140,test1,2020.2.5,Win32,60
,,,,m,2.29917,0,88,88,88,1,flowers/images/76.jpg,flowers/images/10.jpg,89,s,001,2020-11-19_21h56.53.140,test1,2020.2.5,Win32,60
,,,,z,2.353515,0,89,89,89,1,flowers/images/239.jpg,flowers/images/226.jpg,90,s,001,2020-11-19_21h56.53.140,test1,2020.2.5,Win32,60
,,,,z,1.60198,0,90,90,90,1,flowers/images/398.jpg,flowers/images/368.jpg,91,s,001,2020-11-19_21h56.53.140,test1,2020.2.5,Win32,60
,,,,z,2.41941,0,91,91,91,1,flowers/images/21.jpg,flowers/images/53.jpg,92,s,001,2020-11-19_21h56.53.140,test1,2020.2.5,Win32,60
,,,,z,3.198675,0,92,92,92,1,flowers/images/352.jpg,flowers/images/230.jpg,93,s,001,2020-11-19_21h56.53.140,test1,2020.2.5,Win32,60
,,,,m,2.08157,0,93,93,93,1,flowers/images/54.jpg,flowers/images/280.jpg,94,s,001,2020-11-19_21h56.53.140,test1,2020.2.5,Win32,60
,,,,z,1.318165,0,94,94,94,1,flowers/images/259.jpg,flowers/images/184.jpg,95,s,001,2020-11-19_21h56.53.140,test1,2020.2.5,Win32,60
,,,,m,2.650805,0,95,95,95,1,flowers/images/7.jpg,flowers/images/137.jpg,96,s,001,2020-11-19_21h56.53.140,test1,2020.2.5,Win32,60
,,,,z,0.917755,0,96,96,96,1,flowers/images/292.jpg,flowers/images/364.jpg,97,s,001,2020-11-19_21h56.53.140,test1,2020.2.5,Win32,60
,,,,m,2.582005,0,97,97,97,1,flowers/images/84.jpg,flowers/images/245.jpg,98,s,001,2020-11-19_21h56.53.140,test1,2020.2.5,Win32,60
,,,,m,3.107895,0,98,98,98,1,flowers/images/141.jpg,flowers/images/183.jpg,99,s,001,2020-11-19_21h56.53.140,test1,2020.2.5,Win32,60
,,,,m,1.537575,0,99,99,99,1,flowers/images/45.jpg,flowers/images/375.jpg,100,s,001,2020-11-19_21h56.53.140,test1,2020.2.5,Win32,60
,,,,m,1.23137,0,100,100,100,1,flowers/images/111.jpg,flowers/images/395.jpg,101,s,001,2020-11-19_21h56.53.140,test1,2020.2.5,Win32,60
,,,,z,2.017695,0,101,101,101,1,flowers/images/46.jpg,flowers/images/360.jpg,102,s,001,2020-11-19_21h56.53.140,test1,2020.2.5,Win32,60
,,,,m,2.65531,0,102,102,102,1,flowers/images/399.jpg,flowers/images/4.jpg,103,s,001,2020-11-19_21h56.53.140,test1,2020.2.5,Win32,60
,,,,m,1.890565,0,103,103,103,1,flowers/images/250.jpg,flowers/images/113.jpg,104,s,001,2020-11-19_21h56.53.140,test1,2020.2.5,Win32,60
,,,,m,3.061895,0,104,104,104,1,flowers/images/359.jpg,flowers/images/283.jpg,105,s,001,2020-11-19_21h56.53.140,test1,2020.2.5,Win32,60
,,,,m,3.378465,0,105,105,105,1,flowers/images/209.jpg,flowers/images/309.jpg,106,s,001,2020-11-19_21h56.53.140,test1,2020.2.5,Win32,60
,,,,m,2.49645,0,106,106,106,1,flowers/images/219.jpg,flowers/images/285.jpg,107,s,001,2020-11-19_21h56.53.140,test1,2020.2.5,Win32,60
,,,,m,2.250595,0,107,107,107,1,flowers/images/159.jpg,flowers/images/377.jpg,108,s,001,2020-11-19_21h56.53.140,test1,2020.2.5,Win32,60
,,,,m,2.608175,0,108,108,108,1,flowers/images/17.jpg,flowers/images/365.jpg,109,s,001,2020-11-19_21h56.53.140,test1,2020.2.5,Win32,60
,,,,z,1.042995,0,109,109,109,1,flowers/images/247.jpg,flowers/images/14.jpg,110,s,001,2020-11-19_21h56.53.140,test1,2020.2.5,Win32,60
,,,,z,2.679,0,110,110,110,1,flowers/images/357.jpg,flowers/images/229.jpg,111,s,001,2020-11-19_21h56.53.140,test1,2020.2.5,Win32,60
,,,,z,1.71171,0,111,111,111,1,flowers/images/378.jpg,flowers/images/299.jpg,112,s,001,2020-11-19_21h56.53.140,test1,2020.2.5,Win32,60
,,,,z,2.521685,0,112,112,112,1,flowers/images/191.jpg,flowers/images/304.jpg,113,s,001,2020-11-19_21h56.53.140,test1,2020.2.5,Win32,60
,,,,z,1.71858,0,113,113,113,1,flowers/images/195.jpg,flowers/images/44.jpg,114,s,001,2020-11-19_21h56.53.140,test1,2020.2.5,Win32,60
,,,,z,2.98825,0,114,114,114,1,flowers/images/126.jpg,flowers/images/161.jpg,115,s,001,2020-11-19_21h56.53.140,test1,2020.2.5,Win32,60
,,,,m,2.66284,0,115,115,115,1,flowers/images/340.jpg,flowers/images/178.jpg,116,s,001,2020-11-19_21h56.53.140,test1,2020.2.5,Win32,60
,,,,m,1.559865,0,116,116,116,1,flowers/images/201.jpg,flowers/images/21.jpg,117,s,001,2020-11-19_21h56.53.140,test1,2020.2.5,Win32,60
,,,,z,3.11431,0,117,117,117,1,flowers/images/307.jpg,flowers/images/122.jpg,118,s,001,2020-11-19_21h56.53.140,test1,2020.2.5,Win32,60
,,,,z,1.516935,0,118,118,118,1,flowers/images/194.jpg,flowers/images/23.jpg,119,s,001,2020-11-19_21h56.53.140,test1,2020.2.5,Win32,60
,,,,z,2.166745,0,119,119,119,1,flowers/images/318.jpg,flowers/images/293.jpg,120,s,001,2020-11-19_21h56.53.140,test1,2020.2.5,Win32,60
,,,,z,4.24656,0,120,120,120,1,flowers/images/69.jpg,flowers/images/327.jpg,121,s,001,2020-11-19_21h56.53.140,test1,2020.2.5,Win32,60
,,,,m,1.523645,0,121,121,121,1,flowers/images/98.jpg,flowers/images/208.jpg,122,s,001,2020-11-19_21h56.53.140,test1,2020.2.5,Win32,60
,,,,m,1.12128,0,122,122,122,1,flowers/images/184.jpg,flowers/images/96.jpg,123,s,001,2020-11-19_21h56.53.140,test1,2020.2.5,Win32,60
,,,,m,2.035185,0,123,123,123,1,flowers/images/44.jpg,flowers/images/317.jpg,124,s,001,2020-11-19_21h56.53.140,test1,2020.2.5,Win32,60
,,,,z,3.70673,0,124,124,124,1,flowers/images/222.jpg,flowers/images/9.jpg,125,s,001,2020-11-19_21h56.53.140,test1,2020.2.5,Win32,60
,,,,z,2.876555,0,125,125,125,1,flowers/images/218.jpg,flowers/images/153.jpg,126,s,001,2020-11-19_21h56.53.140,test1,2020.2.5,Win32,60
,,,,z,3.2242,0,126,126,126,1,flowers/images/275.jpg,flowers/images/295.jpg,127,s,001,2020-11-19_21h56.53.140,test1,2020.2.5,Win32,60
,,,,m,1.195105,0,127,127,127,1,flowers/images/172.jpg,flowers/images/34.jpg,128,s,001,2020-11-19_21h56.53.140,test1,2020.2.5,Win32,60
,,,,m,1.726285,0,128,128,128,1,flowers/images/345.jpg,flowers/images/89.jpg,129,s,001,2020-11-19_21h56.53.140,test1,2020.2.5,Win32,60
,,,,z,1.56517,0,129,129,129,1,flowers/images/334.jpg,flowers/images/376.jpg,130,s,001,2020-11-19_21h56.53.140,test1,2020.2.5,Win32,60
,,,,m,3.54647,0,130,130,130,1,flowers/images/93.jpg,flowers/images/6.jpg,131,s,001,2020-11-19_21h56.53.140,test1,2020.2.5,Win32,60
,,,,z,1.58944,0,131,131,131,1,flowers/images/183.jpg,flowers/images/76.jpg,132,s,001,2020-11-19_21h56.53.140,test1,2020.2.5,Win32,60
,,,,z,1.06439,0,132,132,132,1,flowers/images/304.jpg,flowers/images/224.jpg,133,s,001,2020-11-19_21h56.53.140,test1,2020.2.5,Win32,60
,,,,z,2.10099,0,133,133,133,1,flowers/images/330.jpg,flowers/images/81.jpg,134,s,001,2020-11-19_21h56.53.140,test1,2020.2.5,Win32,60
,,,,z,2.41406,0,134,134,134,1,flowers/images/147.jpg,flowers/images/36.jpg,135,s,001,2020-11-19_21h56.53.140,test1,2020.2.5,Win32,60
,,,,m,1.51213,0,135,135,135,1,flowers/images/62.jpg,flowers/images/321.jpg,136,s,001,2020-11-19_21h56.53.140,test1,2020.2.5,Win32,60
,,,,z,1.342335,0,136,136,136,1,flowers/images/367.jpg,flowers/images/311.jpg,137,s,001,2020-11-19_21h56.53.140,test1,2020.2.5,Win32,60
,,,,z,1.34366,0,137,137,137,1,flowers/images/326.jpg,flowers/images/7.jpg,138,s,001,2020-11-19_21h56.53.140,test1,2020.2.5,Win32,60
,,,,z,1.048675,0,138,138,138,1,flowers/images/28.jpg,flowers/images/382.jpg,139,s,001,2020-11-19_21h56.53.140,test1,2020.2.5,Win32,60
,,,,m,2.08813,0,139,139,139,1,flowers/images/156.jpg,flowers/images/152.jpg,140,s,001,2020-11-19_21h56.53.140,test1,2020.2.5,Win32,60
,,,,z,3.76438,0,140,140,140,1,flowers/images/113.jpg,flowers/images/167.jpg,141,s,001,2020-11-19_21h56.53.140,test1,2020.2.5,Win32,60
,,,,z,1.73018,0,141,141,141,1,flowers/images/155.jpg,flowers/images/342.jpg,142,s,001,2020-11-19_21h56.53.140,test1,2020.2.5,Win32,60
,,,,m,1.478545,0,142,142,142,1,flowers/images/213.jpg,flowers/images/353.jpg,143,s,001,2020-11-19_21h56.53.140,test1,2020.2.5,Win32,60
,,,,m,2.850545,0,143,143,143,1,flowers/images/298.jpg,flowers/images/90.jpg,144,s,001,2020-11-19_21h56.53.140,test1,2020.2.5,Win32,60
,,,,z,1.756245,0,144,144,144,1,flowers/images/217.jpg,flowers/images/240.jpg,145,s,001,2020-11-19_21h56.53.140,test1,2020.2.5,Win32,60
,,,,m,7.775535,0,145,145,145,1,flowers/images/97.jpg,flowers/images/133.jpg,146,s,001,2020-11-19_21h56.53.140,test1,2020.2.5,Win32,60
,,,,z,1.78148,0,146,146,146,1,flowers/images/354.jpg,flowers/images/310.jpg,147,s,001,2020-11-19_21h56.53.140,test1,2020.2.5,Win32,60
,,,,z,2.419115,0,147,147,147,1,flowers/images/377.jpg,flowers/images/273.jpg,148,s,001,2020-11-19_21h56.53.140,test1,2020.2.5,Win32,60
,,,,m,1.29866,0,148,148,148,1,flowers/images/121.jpg,flowers/images/294.jpg,149,s,001,2020-11-19_21h56.53.140,test1,2020.2.5,Win32,60
,,,,m,1.343515,0,149,149,149,1,flowers/images/14.jpg,flowers/images/101.jpg,150,s,001,2020-11-19_21h56.53.140,test1,2020.2.5,Win32,60
,,,,m,3.58748,0,150,150,150,1,flowers/images/321.jpg,flowers/images/51.jpg,151,s,001,2020-11-19_21h56.53.140,test1,2020.2.5,Win32,60
,,,,z,1.550135,0,151,151,151,1,flowers/images/362.jpg,flowers/images/175.jpg,152,s,001,2020-11-19_21h56.53.140,test1,2020.2.5,Win32,60
,,,,m,1.23105,0,152,152,152,1,flowers/images/203.jpg,flowers/images/248.jpg,153,s,001,2020-11-19_21h56.53.140,test1,2020.2.5,Win32,60
,,,,m,1.47026,0,153,153,153,1,flowers/images/12.jpg,flowers/images/300.jpg,154,s,001,2020-11-19_21h56.53.140,test1,2020.2.5,Win32,60
,,,,m,1.35489,0,154,154,154,1,flowers/images/365.jpg,flowers/images/218.jpg,155,s,001,2020-11-19_21h56.53.140,test1,2020.2.5,Win32,60
,,,,z,1.592485,0,155,155,155,1,flowers/images/75.jpg,flowers/images/109.jpg,156,s,001,2020-11-19_21h56.53.140,test1,2020.2.5,Win32,60
,,,,m,5.232245,0,156,156,156,1,flowers/images/127.jpg,flowers/images/333.jpg,157,s,001,2020-11-19_21h56.53.140,test1,2020.2.5,Win32,60
,,,,z,2.07685,0,157,157,157,1,flowers/images/258.jpg,flowers/images/135.jpg,158,s,001,2020-11-19_21h56.53.140,test1,2020.2.5,Win32,60
,,,,m,2.52709,0,158,158,158,1,flowers/images/343.jpg,flowers/images/65.jpg,159,s,001,2020-11-19_21h56.53.140,test1,2020.2.5,Win32,60
,,,,z,1.766835,0,159,159,159,1,flowers/images/58.jpg,flowers/images/138.jpg,160,s,001,2020-11-19_21h56.53.140,test1,2020.2.5,Win32,60
,,,,m,0.86762,0,160,160,160,1,flowers/images/94.jpg,flowers/images/234.jpg,161,s,001,2020-11-19_21h56.53.140,test1,2020.2.5,Win32,60
,,,,z,1.764155,0,161,161,161,1,flowers/images/379.jpg,flowers/images/207.jpg,162,s,001,2020-11-19_21h56.53.140,test1,2020.2.5,Win32,60
,,,,m,1.49644,0,162,162,162,1,flowers/images/128.jpg,flowers/images/79.jpg,163,s,001,2020-11-19_21h56.53.140,test1,2020.2.5,Win32,60
,,,,m,2.2633,0,163,163,163,1,flowers/images/47.jpg,flowers/images/85.jpg,164,s,001,2020-11-19_21h56.53.140,test1,2020.2.5,Win32,60
,,,,m,2.13195,0,164,164,164,1,flowers/images/19.jpg,flowers/images/191.jpg,165,s,001,2020-11-19_21h56.53.140,test1,2020.2.5,Win32,60
,,,,m,3.13108,0,165,165,165,1,flowers/images/32.jpg,flowers/images/259.jpg,166,s,001,2020-11-19_21h56.53.140,test1,2020.2.5,Win32,60
,,,,z,2.292415,0,166,166,166,1,flowers/images/323.jpg,flowers/images/284.jpg,167,s,001,2020-11-19_21h56.53.140,test1,2020.2.5,Win32,60
,,,,z,1.912045,0,167,167,167,1,flowers/images/395.jpg,flowers/images/348.jpg,168,s,001,2020-11-19_21h56.53.140,test1,2020.2.5,Win32,60
,,,,z,3.04866,0,168,168,168,1,flowers/images/279.jpg,flowers/images/370.jpg,169,s,001,2020-11-19_21h56.53.140,test1,2020.2.5,Win32,60
,,,,z,3.16985,0,169,169,169,1,flowers/images/264.jpg,flowers/images/125.jpg,170,s,001,2020-11-19_21h56.53.140,test1,2020.2.5,Win32,60
,,,,m,1.048315,0,170,170,170,1,flowers/images/77.jpg,flowers/images/318.jpg,171,s,001,2020-11-19_21h56.53.140,test1,2020.2.5,Win32,60
,,,,m,2.102095,0,171,171,171,1,flowers/images/376.jpg,flowers/images/242.jpg,172,s,001,2020-11-19_21h56.53.140,test1,2020.2.5,Win32,60
,,,,z,1.11396,0,172,172,172,1,flowers/images/351.jpg,flowers/images/132.jpg,173,s,001,2020-11-19_21h56.53.140,test1,2020.2.5,Win32,60
,,,,m,1.61524,0,173,173,173,1,flowers/images/305.jpg,flowers/images/252.jpg,174,s,001,2020-11-19_21h56.53.140,test1,2020.2.5,Win32,60
,,,,m,1.25263,0,174,174,174,1,flowers/images/29.jpg,flowers/images/217.jpg,175,s,001,2020-11-19_21h56.53.140,test1,2020.2.5,Win32,60
,,,,m,2.79643,0,175,175,175,1,flowers/images/3.jpg,flowers/images/228.jpg,176,s,001,2020-11-19_21h56.53.140,test1,2020.2.5,Win32,60
,,,,m,1.384905,0,176,176,176,1,flowers/images/199.jpg,flowers/images/330.jpg,177,s,001,2020-11-19_21h56.53.140,test1,2020.2.5,Win32,60
,,,,m,5.866295,0,177,177,177,1,flowers/images/274.jpg,flowers/images/179.jpg,178,s,001,2020-11-19_21h56.53.140,test1,2020.2.5,Win32,60
,,,,m,2.01667,0,178,178,178,1,flowers/images/346.jpg,flowers/images/290.jpg,179,s,001,2020-11-19_21h56.53.140,test1,2020.2.5,Win32,60
,,,,m,2.56177,0,179,179,179,1,flowers/images/56.jpg,flowers/images/204.jpg,180,s,001,2020-11-19_21h56.53.140,test1,2020.2.5,Win32,60
,,,,z,2.533155,0,180,180,180,1,flowers/images/179.jpg,flowers/images/114.jpg,181,s,001,2020-11-19_21h56.53.140,test1,2020.2.5,Win32,60
,,,,m,1.26193,0,181,181,181,1,flowers/images/36.jpg,flowers/images/223.jpg,182,s,001,2020-11-19_21h56.53.140,test1,2020.2.5,Win32,60
,,,,z,2.9348,0,182,182,182,1,flowers/images/344.jpg,flowers/images/168.jpg,183,s,001,2020-11-19_21h56.53.140,test1,2020.2.5,Win32,60
,,,,z,1.65376,0,183,183,183,1,flowers/images/153.jpg,flowers/images/22.jpg,184,s,001,2020-11-19_21h56.53.140,test1,2020.2.5,Win32,60
,,,,m,0.83933,0,184,184,184,1,flowers/images/39.jpg,flowers/images/323.jpg,185,s,001,2020-11-19_21h56.53.140,test1,2020.2.5,Win32,60
,,,,z,4.60507,0,185,185,185,1,flowers/images/327.jpg,flowers/images/349.jpg,186,s,001,2020-11-19_21h56.53.140,test1,2020.2.5,Win32,60
,,,,z,2.073445,0,186,186,186,1,flowers/images/81.jpg,flowers/images/30.jpg,187,s,001,2020-11-19_21h56.53.140,test1,2020.2.5,Win32,60
,,,,z,1.229915,0,187,187,187,1,flowers/images/42.jpg,flowers/images/107.jpg,188,s,001,2020-11-19_21h56.53.140,test1,2020.2.5,Win32,60
,,,,z,1.024295,0,188,188,188,1,flowers/images/18.jpg,flowers/images/358.jpg,189,s,001,2020-11-19_21h56.53.140,test1,2020.2.5,Win32,60
,,,,z,2.031675,0,189,189,189,1,flowers/images/200.jpg,flowers/images/385.jpg,190,s,001,2020-11-19_21h56.53.140,test1,2020.2.5,Win32,60
,,,,z,3.72614,0,190,190,190,1,flowers/images/369.jpg,flowers/images/233.jpg,191,s,001,2020-11-19_21h56.53.140,test1,2020.2.5,Win32,60
,,,,m,2.16736,0,191,191,191,1,flowers/images/309.jpg,flowers/images/320.jpg,192,s,001,2020-11-19_21h56.53.140,test1,2020.2.5,Win32,60
,,,,z,2.08861,0,192,192,192,1,flowers/images/64.jpg,flowers/images/303.jpg,193,s,001,2020-11-19_21h56.53.140,test1,2020.2.5,Win32,60
,,,,m,1.03481,0,193,193,193,1,flowers/images/86.jpg,flowers/images/216.jpg,194,s,001,2020-11-19_21h56.53.140,test1,2020.2.5,Win32,60
,,,,m,1.04102,0,194,194,194,1,flowers/images/260.jpg,flowers/images/361.jpg,195,s,001,2020-11-19_21h56.53.140,test1,2020.2.5,Win32,60
,,,,m,1.67632,0,195,195,195,1,flowers/images/9.jpg,flowers/images/173.jpg,196,s,001,2020-11-19_21h56.53.140,test1,2020.2.5,Win32,60
,,,,z,1.377865,0,196,196,196,1,flowers/images/22.jpg,flowers/images/41.jpg,197,s,001,2020-11-19_21h56.53.140,test1,2020.2.5,Win32,60
,,,,m,1.945875,0,197,197,197,1,flowers/images/214.jpg,flowers/images/145.jpg,198,s,001,2020-11-19_21h56.53.140,test1,2020.2.5,Win32,60
,,,,m,1.542505,0,198,198,198,1,flowers/images/72.jpg,flowers/images/308.jpg,199,s,001,2020-11-19_21h56.53.140,test1,2020.2.5,Win32,60
,,,,z,1.430585,0,199,199,199,1,flowers/images/34.jpg,flowers/images/237.jpg,200,s,001,2020-11-19_21h56.53.140,test1,2020.2.5,Win32,60
,,,,m,1.90421,0,200,200,200,1,flowers/images/166.jpg,flowers/images/169.jpg,201,s,001,2020-11-19_21h56.53.140,test1,2020.2.5,Win32,60
,,,,m,1.46639,0,201,201,201,1,flowers/images/161.jpg,flowers/images/68.jpg,202,s,001,2020-11-19_21h56.53.140,test1,2020.2.5,Win32,60
,,,,m,1.097685,0,202,202,202,1,flowers/images/319.jpg,flowers/images/341.jpg,203,s,001,2020-11-19_21h56.53.140,test1,2020.2.5,Win32,60
,,,,z,2.079705,0,203,203,203,1,flowers/images/322.jpg,flowers/images/111.jpg,204,s,001,2020-11-19_21h56.53.140,test1,2020.2.5,Win32,60
,,,,z,2.56718,0,204,204,204,1,flowers/images/2.jpg,flowers/images/95.jpg,205,s,001,2020-11-19_21h56.53.140,test1,2020.2.5,Win32,60
,,,,z,2.7768,0,205,205,205,1,flowers/images/276.jpg,flowers/images/66.jpg,206,s,001,2020-11-19_21h56.53.140,test1,2020.2.5,Win32,60
,,,,m,2.28607,0,206,206,206,1,flowers/images/116.jpg,flowers/images/206.jpg,207,s,001,2020-11-19_21h56.53.140,test1,2020.2.5,Win32,60
,,,,z,1.576535,0,207,207,207,1,flowers/images/282.jpg,flowers/images/314.jpg,208,s,001,2020-11-19_21h56.53.140,test1,2020.2.5,Win32,60
,,,,z,2.27606,0,208,208,208,1,flowers/images/261.jpg,flowers/images/260.jpg,209,s,001,2020-11-19_21h56.53.140,test1,2020.2.5,Win32,60
,,,,z,0.994915,0,209,209,209,1,flowers/images/353.jpg,flowers/images/151.jpg,210,s,001,2020-11-19_21h56.53.140,test1,2020.2.5,Win32,60
,,,,m,3.874305,0,210,210,210,1,flowers/images/216.jpg,flowers/images/156.jpg,211,s,001,2020-11-19_21h56.53.140,test1,2020.2.5,Win32,60
,,,,m,3.151425,0,211,211,211,1,flowers/images/320.jpg,flowers/images/292.jpg,212,s,001,2020-11-19_21h56.53.140,test1,2020.2.5,Win32,60
,,,,m,4.354345,0,212,212,212,1,flowers/images/149.jpg,flowers/images/279.jpg,213,s,001,2020-11-19_21h56.53.140,test1,2020.2.5,Win32,60
,,,,z,1.168505,0,213,213,213,1,flowers/images/163.jpg,flowers/images/219.jpg,214,s,001,2020-11-19_21h56.53.140,test1,2020.2.5,Win32,60
,,,,z,1.45786,0,214,214,214,1,flowers/images/10.jpg,flowers/images/232.jpg,215,s,001,2020-11-19_21h56.53.140,test1,2020.2.5,Win32,60
,,,,m,2.920035,0,215,215,215,1,flowers/images/55.jpg,flowers/images/73.jpg,216,s,001,2020-11-19_21h56.53.140,test1,2020.2.5,Win32,60
,,,,z,4.67206,0,216,216,216,1,flowers/images/123.jpg,flowers/images/189.jpg,217,s,001,2020-11-19_21h56.53.140,test1,2020.2.5,Win32,60
,,,,m,1.280365,0,217,217,217,1,flowers/images/37.jpg,flowers/images/254.jpg,218,s,001,2020-11-19_21h56.53.140,test1,2020.2.5,Win32,60
,,,,m,2.48758,0,218,218,218,1,flowers/images/230.jpg,flowers/images/166.jpg,219,s,001,2020-11-19_21h56.53.140,test1,2020.2.5,Win32,60
,,,,m,2.52453,0,219,219,219,1,flowers/images/338.jpg,flowers/images/33.jpg,220,s,001,2020-11-19_21h56.53.140,test1,2020.2.5,Win32,60
,,,,m,1.8853,0,220,220,220,1,flowers/images/337.jpg,flowers/images/193.jpg,221,s,001,2020-11-19_21h56.53.140,test1,2020.2.5,Win32,60
,,,,m,4.11332,0,221,221,221,1,flowers/images/83.jpg,flowers/images/339.jpg,222,s,001,2020-11-19_21h56.53.140,test1,2020.2.5,Win32,60
,,,,m,3.703695,0,222,222,222,1,flowers/images/190.jpg,flowers/images/99.jpg,223,s,001,2020-11-19_21h56.53.140,test1,2020.2.5,Win32,60
,,,,z,2.81844,0,223,223,223,1,flowers/images/257.jpg,flowers/images/369.jpg,224,s,001,2020-11-19_21h56.53.140,test1,2020.2.5,Win32,60
,,,,z,1.82951,0,224,224,224,1,flowers/images/280.jpg,flowers/images/355.jpg,225,s,001,2020-11-19_21h56.53.140,test1,2020.2.5,Win32,60
,,,,z,2.1482,0,225,225,225,1,flowers/images/105.jpg,flowers/images/338.jpg,226,s,001,2020-11-19_21h56.53.140,test1,2020.2.5,Win32,60
,,,,z,1.37537,0,226,226,226,1,flowers/images/202.jpg,flowers/images/3.jpg,227,s,001,2020-11-19_21h56.53.140,test1,2020.2.5,Win32,60
,,,,z,1.333015,0,227,227,227,1,flowers/images/212.jpg,flowers/images/38.jpg,228,s,001,2020-11-19_21h56.53.140,test1,2020.2.5,Win32,60
,,,,z,1.52846,0,228,228,228,1,flowers/images/152.jpg,flowers/images/0.jpg,229,s,001,2020-11-19_21h56.53.140,test1,2020.2.5,Win32,60
,,,,m,1.96971,0,229,229,229,1,flowers/images/170.jpg,flowers/images/296.jpg,230,s,001,2020-11-19_21h56.53.140,test1,2020.2.5,Win32,60
,,,,z,2.79795,0,230,230,230,1,flowers/images/74.jpg,flowers/images/80.jpg,231,s,001,2020-11-19_21h56.53.140,test1,2020.2.5,Win32,60
,,,,z,0.87538,0,231,231,231,1,flowers/images/226.jpg,flowers/images/117.jpg,232,s,001,2020-11-19_21h56.53.140,test1,2020.2.5,Win32,60
,,,,m,0.98696,0,232,232,232,1,flowers/images/1.jpg,flowers/images/19.jpg,233,s,001,2020-11-19_21h56.53.140,test1,2020.2.5,Win32,60
,,,,z,0.88404,0,233,233,233,1,flowers/images/182.jpg,flowers/images/335.jpg,234,s,001,2020-11-19_21h56.53.140,test1,2020.2.5,Win32,60
,,,,z,1.733885,0,234,234,234,1,flowers/images/245.jpg,flowers/images/62.jpg,235,s,001,2020-11-19_21h56.53.140,test1,2020.2.5,Win32,60
,,,,z,1.78287,0,235,235,235,1,flowers/images/167.jpg,flowers/images/49.jpg,236,s,001,2020-11-19_21h56.53.140,test1,2020.2.5,Win32,60
,,,,m,0.797835,0,236,236,236,1,flowers/images/38.jpg,flowers/images/250.jpg,237,s,001,2020-11-19_21h56.53.140,test1,2020.2.5,Win32,60
,,,,m,2.06953,0,237,237,237,1,flowers/images/124.jpg,flowers/images/324.jpg,238,s,001,2020-11-19_21h56.53.140,test1,2020.2.5,Win32,60
,,,,z,1.31576,0,238,238,238,1,flowers/images/92.jpg,flowers/images/13.jpg,239,s,001,2020-11-19_21h56.53.140,test1,2020.2.5,Win32,60
,,,,m,1.13341,0,239,239,239,1,flowers/images/120.jpg,flowers/images/374.jpg,240,s,001,2020-11-19_21h56.53.140,test1,2020.2.5,Win32,60
,,,,m,2.013185,0,240,240,240,1,flowers/images/350.jpg,flowers/images/100.jpg,241,s,001,2020-11-19_21h56.53.140,test1,2020.2.5,Win32,60
,,,,z,2.68453,0,241,241,241,1,flowers/images/68.jpg,flowers/images/236.jpg,242,s,001,2020-11-19_21h56.53.140,test1,2020.2.5,Win32,60
,,,,m,0.830605,0,242,242,242,1,flowers/images/5.jpg,flowers/images/340.jpg,243,s,001,2020-11-19_21h56.53.140,test1,2020.2.5,Win32,60
,,,,m,2.653305,0,243,243,243,1,flowers/images/99.jpg,flowers/images/313.jpg,244,s,001,2020-11-19_21h56.53.140,test1,2020.2.5,Win32,60
,,,,z,1.28946,0,244,244,244,1,flowers/images/229.jpg,flowers/images/177.jpg,245,s,001,2020-11-19_21h56.53.140,test1,2020.2.5,Win32,60
,,,,z,0.88925,0,245,245,245,1,flowers/images/361.jpg,flowers/images/383.jpg,246,s,001,2020-11-19_21h56.53.140,test1,2020.2.5,Win32,60
,,,,m,2.343175,0,246,246,246,1,flowers/images/129.jpg,flowers/images/398.jpg,247,s,001,2020-11-19_21h56.53.140,test1,2020.2.5,Win32,60
,,,,z,2.32567,0,247,247,247,1,flowers/images/228.jpg,flowers/images/159.jpg,248,s,001,2020-11-19_21h56.53.140,test1,2020.2.5,Win32,60
,,,,z,1.81191,0,248,248,248,1,flowers/images/65.jpg,flowers/images/312.jpg,249,s,001,2020-11-19_21h56.53.140,test1,2020.2.5,Win32,60
,,,,m,0.835835,0,249,249,249,1,flowers/images/73.jpg,flowers/images/163.jpg,250,s,001,2020-11-19_21h56.53.140,test1,2020.2.5,Win32,60
,,,,m,1.62414,0,250,250,250,1,flowers/images/224.jpg,flowers/images/278.jpg,251,s,001,2020-11-19_21h56.53.140,test1,2020.2.5,Win32,60
,,,,m,4.760185,0,251,251,251,1,flowers/images/312.jpg,flowers/images/185.jpg,252,s,001,2020-11-19_21h56.53.140,test1,2020.2.5,Win32,60
,,,,m,1.03237,0,252,252,252,1,flowers/images/256.jpg,flowers/images/112.jpg,253,s,001,2020-11-19_21h56.53.140,test1,2020.2.5,Win32,60
,,,,m,1.40309,0,253,253,253,1,flowers/images/26.jpg,flowers/images/261.jpg,254,s,001,2020-11-19_21h56.53.140,test1,2020.2.5,Win32,60
,,,,z,2.25662,0,254,254,254,1,flowers/images/51.jpg,flowers/images/106.jpg,255,s,001,2020-11-19_21h56.53.140,test1,2020.2.5,Win32,60
,,,,m,1.966495,0,255,255,255,1,flowers/images/371.jpg,flowers/images/160.jpg,256,s,001,2020-11-19_21h56.53.140,test1,2020.2.5,Win32,60
,,,,m,1.5347,0,256,256,256,1,flowers/images/59.jpg,flowers/images/257.jpg,257,s,001,2020-11-19_21h56.53.140,test1,2020.2.5,Win32,60
,,,,z,2.288015,0,257,257,257,1,flowers/images/347.jpg,flowers/images/190.jpg,258,s,001,2020-11-19_21h56.53.140,test1,2020.2.5,Win32,60
,,,,z,2.9577,0,258,258,258,1,flowers/images/8.jpg,flowers/images/209.jpg,259,s,001,2020-11-19_21h56.53.140,test1,2020.2.5,Win32,60
,,,,m,2.85869,0,259,259,259,1,flowers/images/278.jpg,flowers/images/31.jpg,260,s,001,2020-11-19_21h56.53.140,test1,2020.2.5,Win32,60
,,,,z,2.05543,0,260,260,260,1,flowers/images/262.jpg,flowers/images/325.jpg,261,s,001,2020-11-19_21h56.53.140,test1,2020.2.5,Win32,60
,,,,m,2.997455,0,261,261,261,1,flowers/images/273.jpg,flowers/images/83.jpg,262,s,001,2020-11-19_21h56.53.140,test1,2020.2.5,Win32,60
,,,,z,3.52026,0,262,262,262,1,flowers/images/52.jpg,flowers/images/17.jpg,263,s,001,2020-11-19_21h56.53.140,test1,2020.2.5,Win32,60
,,,,z,2.316975,0,263,263,263,1,flowers/images/243.jpg,flowers/images/27.jpg,264,s,001,2020-11-19_21h56.53.140,test1,2020.2.5,Win32,60
,,,,m,1.02552,0,264,264,264,1,flowers/images/175.jpg,flowers/images/192.jpg,265,s,001,2020-11-19_21h56.53.140,test1,2020.2.5,Win32,60
,,,,z,1.662835,0,265,265,265,1,flowers/images/53.jpg,flowers/images/199.jpg,266,s,001,2020-11-19_21h56.53.140,test1,2020.2.5,Win32,60
,,,,z,0.964055,0,266,266,266,1,flowers/images/316.jpg,flowers/images/381.jpg,267,s,001,2020-11-19_21h56.53.140,test1,2020.2.5,Win32,60
,,,,z,2.44204,0,267,267,267,1,flowers/images/249.jpg,flowers/images/213.jpg,268,s,001,2020-11-19_21h56.53.140,test1,2020.2.5,Win32,60
,,,,z,0.256565,0,268,268,268,1,flowers/images/70.jpg,flowers/images/60.jpg,269,s,001,2020-11-19_21h56.53.140,test1,2020.2.5,Win32,60
,,,,z,2.345365,0,269,269,269,1,flowers/images/300.jpg,flowers/images/386.jpg,270,s,001,2020-11-19_21h56.53.140,test1,2020.2.5,Win32,60
,,,,z,1.54063,0,270,270,270,1,flowers/images/162.jpg,flowers/images/149.jpg,271,s,001,2020-11-19_21h56.53.140,test1,2020.2.5,Win32,60
,,,,z,1.896555,0,271,271,271,1,flowers/images/146.jpg,flowers/images/336.jpg,272,s,001,2020-11-19_21h56.53.140,test1,2020.2.5,Win32,60
,,,,z,2.695395,0,272,272,272,1,flowers/images/115.jpg,flowers/images/120.jpg,273,s,001,2020-11-19_21h56.53.140,test1,2020.2.5,Win32,60
,,,,m,1.016265,0,273,273,273,1,flowers/images/311.jpg,flowers/images/123.jpg,274,s,001,2020-11-19_21h56.53.140,test1,2020.2.5,Win32,60
,,,,z,2.561795,0,274,274,274,1,flowers/images/33.jpg,flowers/images/146.jpg,275,s,001,2020-11-19_21h56.53.140,test1,2020.2.5,Win32,60
,,,,z,2.273695,0,275,275,275,1,flowers/images/78.jpg,flowers/images/352.jpg,276,s,001,2020-11-19_21h56.53.140,test1,2020.2.5,Win32,60
,,,,m,0.99942,0,276,276,276,1,flowers/images/43.jpg,flowers/images/50.jpg,277,s,001,2020-11-19_21h56.53.140,test1,2020.2.5,Win32,60
,,,,z,2.205,0,277,277,277,1,flowers/images/373.jpg,flowers/images/78.jpg,278,s,001,2020-11-19_21h56.53.140,test1,2020.2.5,Win32,60
,,,,z,1.108515,0,278,278,278,1,flowers/images/233.jpg,flowers/images/134.jpg,279,s,001,2020-11-19_21h56.53.140,test1,2020.2.5,Win32,60
,,,,z,1.976245,0,279,279,279,1,flowers/images/386.jpg,flowers/images/390.jpg,280,s,001,2020-11-19_21h56.53.140,test1,2020.2.5,Win32,60
,,,,m,0.948595,0,280,280,280,1,flowers/images/205.jpg,flowers/images/388.jpg,281,s,001,2020-11-19_21h56.53.140,test1,2020.2.5,Win32,60
,,,,m,2.19437,0,281,281,281,1,flowers/images/130.jpg,flowers/images/48.jpg,282,s,001,2020-11-19_21h56.53.140,test1,2020.2.5,Win32,60
,,,,z,2.246575,0,282,282,282,1,flowers/images/187.jpg,flowers/images/253.jpg,283,s,001,2020-11-19_21h56.53.140,test1,2020.2.5,Win32,60
,,,,z,3.046085,0,283,283,283,1,flowers/images/232.jpg,flowers/images/141.jpg,284,s,001,2020-11-19_21h56.53.140,test1,2020.2.5,Win32,60
,,,,z,1.63055,0,284,284,284,1,flowers/images/253.jpg,flowers/images/71.jpg,285,s,001,2020-11-19_21h56.53.140,test1,2020.2.5,Win32,60
,,,,z,3.75352,0,285,285,285,1,flowers/images/332.jpg,flowers/images/322.jpg,286,s,001,2020-11-19_21h56.53.140,test1,2020.2.5,Win32,60
,,,,m,2.60451,0,286,286,286,1,flowers/images/103.jpg,flowers/images/182.jpg,287,s,001,2020-11-19_21h56.53.140,test1,2020.2.5,Win32,60
,,,,m,1.19098,0,287,287,287,1,flowers/images/271.jpg,flowers/images/103.jpg,288,s,001,2020-11-19_21h56.53.140,test1,2020.2.5,Win32,60
,,,,m,2.059345,0,288,288,288,1,flowers/images/63.jpg,flowers/images/227.jpg,289,s,001,2020-11-19_21h56.53.140,test1,2020.2.5,Win32,60
,,,,m,1.980305,0,289,289,289,1,flowers/images/382.jpg,flowers/images/359.jpg,290,s,001,2020-11-19_21h56.53.140,test1,2020.2.5,Win32,60
,,,,z,1.334715,0,290,290,290,1,flowers/images/252.jpg,flowers/images/87.jpg,291,s,001,2020-11-19_21h56.53.140,test1,2020.2.5,Win32,60
,,,,m,2.14053,0,291,291,291,1,flowers/images/101.jpg,flowers/images/196.jpg,292,s,001,2020-11-19_21h56.53.140,test1,2020.2.5,Win32,60
,,,,m,1.253655,0,292,292,292,1,flowers/images/104.jpg,flowers/images/270.jpg,293,s,001,2020-11-19_21h56.53.140,test1,2020.2.5,Win32,60
,,,,z,1.501495,0,293,293,293,1,flowers/images/270.jpg,flowers/images/108.jpg,294,s,001,2020-11-19_21h56.53.140,test1,2020.2.5,Win32,60
,,,,m,1.09939,0,294,294,294,1,flowers/images/0.jpg,flowers/images/143.jpg,295,s,001,2020-11-19_21h56.53.140,test1,2020.2.5,Win32,60
,,,,m,4.04011,0,295,295,295,1,flowers/images/348.jpg,flowers/images/276.jpg,296,s,001,2020-11-19_21h56.53.140,test1,2020.2.5,Win32,60
,,,,z,1.01146,0,296,296,296,1,flowers/images/251.jpg,flowers/images/55.jpg,297,s,001,2020-11-19_21h56.53.140,test1,2020.2.5,Win32,60
,,,,m,1.41477,0,297,297,297,1,flowers/images/119.jpg,flowers/images/43.jpg,298,s,001,2020-11-19_21h56.53.140,test1,2020.2.5,Win32,60
,,,,m,2.66306,0,298,298,298,1,flowers/images/158.jpg,flowers/images/46.jpg,299,s,001,2020-11-19_21h56.53.140,test1,2020.2.5,Win32,60
,,,,z,1.07918,0,299,299,299,1,flowers/images/297.jpg,flowers/images/205.jpg,300,s,001,2020-11-19_21h56.53.140,test1,2020.2.5,Win32,60
,,,,m,2.88042,0,300,300,300,1,flowers/images/25.jpg,flowers/images/54.jpg,301,s,001,2020-11-19_21h56.53.140,test1,2020.2.5,Win32,60
,,,,z,1.448855,0,301,301,301,1,flowers/images/67.jpg,flowers/images/331.jpg,302,s,001,2020-11-19_21h56.53.140,test1,2020.2.5,Win32,60
,,,,z,1.049675,0,302,302,302,1,flowers/images/366.jpg,flowers/images/372.jpg,303,s,001,2020-11-19_21h56.53.140,test1,2020.2.5,Win32,60
,,,,z,2.092535,0,303,303,303,1,flowers/images/4.jpg,flowers/images/220.jpg,304,s,001,2020-11-19_21h56.53.140,test1,2020.2.5,Win32,60
,,,,z,1.377755,0,304,304,304,1,flowers/images/90.jpg,flowers/images/148.jpg,305,s,001,2020-11-19_21h56.53.140,test1,2020.2.5,Win32,60
,,,,m,4.176775,0,305,305,305,1,flowers/images/198.jpg,flowers/images/380.jpg,306,s,001,2020-11-19_21h56.53.140,test1,2020.2.5,Win32,60
,,,,z,1.91483,0,306,306,306,1,flowers/images/375.jpg,flowers/images/362.jpg,307,s,001,2020-11-19_21h56.53.140,test1,2020.2.5,Win32,60
,,,,z,1.460945,0,307,307,307,1,flowers/images/372.jpg,flowers/images/98.jpg,308,s,001,2020-11-19_21h56.53.140,test1,2020.2.5,Win32,60
,,,,z,1.97375,0,308,308,308,1,flowers/images/364.jpg,flowers/images/12.jpg,309,s,001,2020-11-19_21h56.53.140,test1,2020.2.5,Win32,60
,,,,m,1.03429,0,309,309,309,1,flowers/images/176.jpg,flowers/images/316.jpg,310,s,001,2020-11-19_21h56.53.140,test1,2020.2.5,Win32,60
,,,,m,1.803015,0,310,310,310,1,flowers/images/48.jpg,flowers/images/75.jpg,311,s,001,2020-11-19_21h56.53.140,test1,2020.2.5,Win32,60
,,,,m,1.311045,0,311,311,311,1,flowers/images/188.jpg,flowers/images/8.jpg,312,s,001,2020-11-19_21h56.53.140,test1,2020.2.5,Win32,60
,,,,z,3.49066,0,312,312,312,1,flowers/images/288.jpg,flowers/images/251.jpg,313,s,001,2020-11-19_21h56.53.140,test1,2020.2.5,Win32,60
,,,,m,1.268745,0,313,313,313,1,flowers/images/349.jpg,flowers/images/282.jpg,314,s,001,2020-11-19_21h56.53.140,test1,2020.2.5,Win32,60
,,,,z,1.610785,0,314,314,314,1,flowers/images/135.jpg,flowers/images/172.jpg,315,s,001,2020-11-19_21h56.53.140,test1,2020.2.5,Win32,60
,,,,z,1.77407,0,315,315,315,1,flowers/images/283.jpg,flowers/images/139.jpg,316,s,001,2020-11-19_21h56.53.140,test1,2020.2.5,Win32,60
,,,,z,3.087635,0,316,316,316,1,flowers/images/301.jpg,flowers/images/102.jpg,317,s,001,2020-11-19_21h56.53.140,test1,2020.2.5,Win32,60
,,,,z,1.752885,0,317,317,317,1,flowers/images/164.jpg,flowers/images/392.jpg,318,s,001,2020-11-19_21h56.53.140,test1,2020.2.5,Win32,60
,,,,z,2.273205,0,318,318,318,1,flowers/images/385.jpg,flowers/images/244.jpg,319,s,001,2020-11-19_21h56.53.140,test1,2020.2.5,Win32,60
,,,,m,2.83639,0,319,319,319,1,flowers/images/137.jpg,flowers/images/104.jpg,320,s,001,2020-11-19_21h56.53.140,test1,2020.2.5,Win32,60
,,,,m,1.90183,0,320,320,320,1,flowers/images/23.jpg,flowers/images/157.jpg,321,s,001,2020-11-19_21h56.53.140,test1,2020.2.5,Win32,60
,,,,m,1.469905,0,321,321,321,1,flowers/images/310.jpg,flowers/images/238.jpg,322,s,001,2020-11-19_21h56.53.140,test1,2020.2.5,Win32,60
,,,,m,1.460765,0,322,322,322,1,flowers/images/215.jpg,flowers/images/222.jpg,323,s,001,2020-11-19_21h56.53.140,test1,2020.2.5,Win32,60
,,,,z,1.76892,0,323,323,323,1,flowers/images/244.jpg,flowers/images/274.jpg,324,s,001,2020-11-19_21h56.53.140,test1,2020.2.5,Win32,60
,,,,m,6.75742,0,324,324,324,1,flowers/images/313.jpg,flowers/images/329.jpg,325,s,001,2020-11-19_21h56.53.140,test1,2020.2.5,Win32,60
,,,,m,2.994585,0,325,325,325,1,flowers/images/207.jpg,flowers/images/188.jpg,326,s,001,2020-11-19_21h56.53.140,test1,2020.2.5,Win32,60
,,,,m,2.5642,0,326,326,326,1,flowers/images/265.jpg,flowers/images/351.jpg,327,s,001,2020-11-19_21h56.53.140,test1,2020.2.5,Win32,60
,,,,z,1.386485,0,327,327,327,1,flowers/images/248.jpg,flowers/images/239.jpg,328,s,001,2020-11-19_21h56.53.140,test1,2020.2.5,Win32,60
,,,,z,3.53995,0,328,328,328,1,flowers/images/204.jpg,flowers/images/225.jpg,329,s,001,2020-11-19_21h56.53.140,test1,2020.2.5,Win32,60
,,,,m,4.20311,0,329,329,329,1,flowers/images/13.jpg,flowers/images/119.jpg,330,s,001,2020-11-19_21h56.53.140,test1,2020.2.5,Win32,60
,,,,z,1.17049,0,330,330,330,1,flowers/images/370.jpg,flowers/images/39.jpg,331,s,001,2020-11-19_21h56.53.140,test1,2020.2.5,Win32,60
,,,,z,1.39626,0,331,331,331,1,flowers/images/397.jpg,flowers/images/69.jpg,332,s,001,2020-11-19_21h56.53.140,test1,2020.2.5,Win32,60
,,,,z,1.13332,0,332,332,332,1,flowers/images/393.jpg,flowers/images/399.jpg,333,s,001,2020-11-19_21h56.53.140,test1,2020.2.5,Win32,60
,,,,m,2.924115,0,333,333,333,1,flowers/images/363.jpg,flowers/images/74.jpg,334,s,001,2020-11-19_21h56.53.140,test1,2020.2.5,Win32,60
,,,,z,1.54583,0,334,334,334,1,flowers/images/254.jpg,flowers/images/174.jpg,335,s,001,2020-11-19_21h56.53.140,test1,2020.2.5,Win32,60
,,,,m,2.31704,0,335,335,335,1,flowers/images/139.jpg,flowers/images/70.jpg,336,s,001,2020-11-19_21h56.53.140,test1,2020.2.5,Win32,60
,,,,m,1.101445,0,336,336,336,1,flowers/images/95.jpg,flowers/images/315.jpg,337,s,001,2020-11-19_21h56.53.140,test1,2020.2.5,Win32,60
,,,,z,1.995435,0,337,337,337,1,flowers/images/294.jpg,flowers/images/334.jpg,338,s,001,2020-11-19_21h56.53.140,test1,2020.2.5,Win32,60
,,,,z,0.842635,0,338,338,338,1,flowers/images/174.jpg,flowers/images/171.jpg,339,s,001,2020-11-19_21h56.53.140,test1,2020.2.5,Win32,60
,,,,m,0.91426,0,339,339,339,1,flowers/images/57.jpg,flowers/images/326.jpg,340,s,001,2020-11-19_21h56.53.140,test1,2020.2.5,Win32,60
,,,,m,1.142515,0,340,340,340,1,flowers/images/246.jpg,flowers/images/82.jpg,341,s,001,2020-11-19_21h56.53.140,test1,2020.2.5,Win32,60
,,,,z,1.12141,0,341,341,341,1,flowers/images/16.jpg,flowers/images/45.jpg,342,s,001,2020-11-19_21h56.53.140,test1,2020.2.5,Win32,60
,,,,m,2.472625,0,342,342,342,1,flowers/images/380.jpg,flowers/images/150.jpg,343,s,001,2020-11-19_21h56.53.140,test1,2020.2.5,Win32,60
,,,,m,1.263295,0,343,343,343,1,flowers/images/109.jpg,flowers/images/350.jpg,344,s,001,2020-11-19_21h56.53.140,test1,2020.2.5,Win32,60
,,,,m,0.86882,0,344,344,344,1,flowers/images/223.jpg,flowers/images/366.jpg,345,s,001,2020-11-19_21h56.53.140,test1,2020.2.5,Win32,60
,,,,m,1.39304,0,345,345,345,1,flowers/images/60.jpg,flowers/images/194.jpg,346,s,001,2020-11-19_21h56.53.140,test1,2020.2.5,Win32,60
,,,,m,1.55149,0,346,346,346,1,flowers/images/268.jpg,flowers/images/332.jpg,347,s,001,2020-11-19_21h56.53.140,test1,2020.2.5,Win32,60
,,,,z,1.0284,0,347,347,347,1,flowers/images/388.jpg,flowers/images/319.jpg,348,s,001,2020-11-19_21h56.53.140,test1,2020.2.5,Win32,60
,,,,z,1.38799,0,348,348,348,1,flowers/images/356.jpg,flowers/images/337.jpg,349,s,001,2020-11-19_21h56.53.140,test1,2020.2.5,Win32,60
,,,,m,2.77107,0,349,349,349,1,flowers/images/384.jpg,flowers/images/344.jpg,350,s,001,2020-11-19_21h56.53.140,test1,2020.2.5,Win32,60
,,,,z,1.238155,0,350,350,350,1,flowers/images/333.jpg,flowers/images/346.jpg,351,s,001,2020-11-19_21h56.53.140,test1,2020.2.5,Win32,60
,,,,m,1.066385,0,351,351,351,1,flowers/images/24.jpg,flowers/images/116.jpg,352,s,001,2020-11-19_21h56.53.140,test1,2020.2.5,Win32,60
,,,,m,1.43617,0,352,352,352,1,flowers/images/220.jpg,flowers/images/235.jpg,353,s,001,2020-11-19_21h56.53.140,test1,2020.2.5,Win32,60
,,,,z,1.127265,0,353,353,353,1,flowers/images/269.jpg,flowers/images/198.jpg,354,s,001,2020-11-19_21h56.53.140,test1,2020.2.5,Win32,60
,,,,z,3.066795,0,354,354,354,1,flowers/images/107.jpg,flowers/images/1.jpg,355,s,001,2020-11-19_21h56.53.140,test1,2020.2.5,Win32,60
,,,,m,1.574265,0,355,355,355,1,flowers/images/314.jpg,flowers/images/147.jpg,356,s,001,2020-11-19_21h56.53.140,test1,2020.2.5,Win32,60
,,,,m,1.624055,0,356,356,356,1,flowers/images/117.jpg,flowers/images/258.jpg,357,s,001,2020-11-19_21h56.53.140,test1,2020.2.5,Win32,60
,,,,m,1.037555,0,357,357,357,1,flowers/images/41.jpg,flowers/images/214.jpg,358,s,001,2020-11-19_21h56.53.140,test1,2020.2.5,Win32,60
,,,,m,1.77089,0,358,358,358,1,flowers/images/306.jpg,flowers/images/118.jpg,359,s,001,2020-11-19_21h56.53.140,test1,2020.2.5,Win32,60
,,,,z,1.4423,0,359,359,359,1,flowers/images/299.jpg,flowers/images/40.jpg,360,s,001,2020-11-19_21h56.53.140,test1,2020.2.5,Win32,60
,,,,m,3.028835,0,360,360,360,1,flowers/images/50.jpg,flowers/images/291.jpg,361,s,001,2020-11-19_21h56.53.140,test1,2020.2.5,Win32,60
,,,,z,1.17264,0,361,361,361,1,flowers/images/238.jpg,flowers/images/129.jpg,362,s,001,2020-11-19_21h56.53.140,test1,2020.2.5,Win32,60
,,,,z,1.093755,0,362,362,362,1,flowers/images/30.jpg,flowers/images/136.jpg,363,s,001,2020-11-19_21h56.53.140,test1,2020.2.5,Win32,60
,,,,m,3.7605,0,363,363,363,1,flowers/images/211.jpg,flowers/images/306.jpg,364,s,001,2020-11-19_21h56.53.140,test1,2020.2.5,Win32,60
,,,,z,1.1655,0,364,364,364,1,flowers/images/227.jpg,flowers/images/57.jpg,365,s,001,2020-11-19_21h56.53.140,test1,2020.2.5,Win32,60
,,,,z,2.03321,0,365,365,365,1,flowers/images/242.jpg,flowers/images/61.jpg,366,s,001,2020-11-19_21h56.53.140,test1,2020.2.5,Win32,60
,,,,m,2.1196,0,366,366,366,1,flowers/images/387.jpg,flowers/images/263.jpg,367,s,001,2020-11-19_21h56.53.140,test1,2020.2.5,Win32,60
,,,,z,2.069325,0,367,367,367,1,flowers/images/193.jpg,flowers/images/367.jpg,368,s,001,2020-11-19_21h56.53.140,test1,2020.2.5,Win32,60
,,,,m,1.63154,0,368,368,368,1,flowers/images/231.jpg,flowers/images/18.jpg,369,s,001,2020-11-19_21h56.53.140,test1,2020.2.5,Win32,60
,,,,m,2.149125,0,369,369,369,1,flowers/images/154.jpg,flowers/images/32.jpg,370,s,001,2020-11-19_21h56.53.140,test1,2020.2.5,Win32,60
,,,,m,2.602575,0,370,370,370,1,flowers/images/79.jpg,flowers/images/301.jpg,371,s,001,2020-11-19_21h56.53.140,test1,2020.2.5,Win32,60
,,,,z,1.43531,0,371,371,371,1,flowers/images/263.jpg,flowers/images/210.jpg,372,s,001,2020-11-19_21h56.53.140,test1,2020.2.5,Win32,60
,,,,m,4.517895,0,372,372,372,1,flowers/images/383.jpg,flowers/images/354.jpg,373,s,001,2020-11-19_21h56.53.140,test1,2020.2.5,Win32,60
,,,,m,0.9806,0,373,373,373,1,flowers/images/290.jpg,flowers/images/212.jpg,374,s,001,2020-11-19_21h56.53.140,test1,2020.2.5,Win32,60
,,,,z,1.185215,0,374,374,374,1,flowers/images/206.jpg,flowers/images/397.jpg,375,s,001,2020-11-19_21h56.53.140,test1,2020.2.5,Win32,60
,,,,z,1.07662,0,375,375,375,1,flowers/images/317.jpg,flowers/images/297.jpg,376,s,001,2020-11-19_21h56.53.140,test1,2020.2.5,Win32,60
,,,,m,1.19353,0,376,376,376,1,flowers/images/329.jpg,flowers/images/255.jpg,377,s,001,2020-11-19_21h56.53.140,test1,2020.2.5,Win32,60
,,,,m,1.33335,0,377,377,377,1,flowers/images/225.jpg,flowers/images/91.jpg,378,s,001,2020-11-19_21h56.53.140,test1,2020.2.5,Win32,60
,,,,m,2.52707,0,378,378,378,1,flowers/images/11.jpg,flowers/images/256.jpg,379,s,001,2020-11-19_21h56.53.140,test1,2020.2.5,Win32,60
,,,,z,1.986715,0,379,379,379,1,flowers/images/234.jpg,flowers/images/64.jpg,380,s,001,2020-11-19_21h56.53.140,test1,2020.2.5,Win32,60
,,,,z,2.20228,0,380,380,380,1,flowers/images/342.jpg,flowers/images/26.jpg,381,s,001,2020-11-19_21h56.53.140,test1,2020.2.5,Win32,60
,,,,z,1.59616,0,381,381,381,1,flowers/images/391.jpg,flowers/images/286.jpg,382,s,001,2020-11-19_21h56.53.140,test1,2020.2.5,Win32,60
,,,,m,2.6504,0,382,382,382,1,flowers/images/221.jpg,flowers/images/268.jpg,383,s,001,2020-11-19_21h56.53.140,test1,2020.2.5,Win32,60
,,,,m,0.90706,0,383,383,383,1,flowers/images/210.jpg,flowers/images/84.jpg,384,s,001,2020-11-19_21h56.53.140,test1,2020.2.5,Win32,60
,,,,m,1.372735,0,384,384,384,1,flowers/images/138.jpg,flowers/images/77.jpg,385,s,001,2020-11-19_21h56.53.140,test1,2020.2.5,Win32,60
,,,,m,1.312385,0,385,385,385,1,flowers/images/315.jpg,flowers/images/269.jpg,386,s,001,2020-11-19_21h56.53.140,test1,2020.2.5,Win32,60
,,,,z,1.566045,0,386,386,386,1,flowers/images/308.jpg,flowers/images/265.jpg,387,s,001,2020-11-19_21h56.53.140,test1,2020.2.5,Win32,60
,,,,z,1.24624,0,387,387,387,1,flowers/images/88.jpg,flowers/images/56.jpg,388,s,001,2020-11-19_21h56.53.140,test1,2020.2.5,Win32,60
,,,,z,1.471685,0,388,388,388,1,flowers/images/102.jpg,flowers/images/126.jpg,389,s,001,2020-11-19_21h56.53.140,test1,2020.2.5,Win32,60
,,,,m,1.29515,0,389,389,389,1,flowers/images/132.jpg,flowers/images/389.jpg,390,s,001,2020-11-19_21h56.53.140,test1,2020.2.5,Win32,60
,,,,z,1.592595,0,390,390,390,1,flowers/images/186.jpg,flowers/images/144.jpg,391,s,001,2020-11-19_21h56.53.140,test1,2020.2.5,Win32,60
,,,,m,1.65038,0,391,391,391,1,flowers/images/284.jpg,flowers/images/92.jpg,392,s,001,2020-11-19_21h56.53.140,test1,2020.2.5,Win32,60
,,,,z,0.94616,0,392,392,392,1,flowers/images/396.jpg,flowers/images/24.jpg,393,s,001,2020-11-19_21h56.53.140,test1,2020.2.5,Win32,60
,,,,z,1.303845,0,393,393,393,1,flowers/images/374.jpg,flowers/images/287.jpg,394,s,001,2020-11-19_21h56.53.140,test1,2020.2.5,Win32,60
,,,,m,2.04928,0,394,394,394,1,flowers/images/140.jpg,flowers/images/267.jpg,395,s,001,2020-11-19_21h56.53.140,test1,2020.2.5,Win32,60
,,,,z,1.588095,0,395,395,395,1,flowers/images/267.jpg,flowers/images/343.jpg,396,s,001,2020-11-19_21h56.53.140,test1,2020.2.5,Win32,60
,,,,m,1.101315,0,396,396,396,1,flowers/images/286.jpg,flowers/images/35.jpg,397,s,001,2020-11-19_21h56.53.140,test1,2020.2.5,Win32,60
,,,,m,3.98606,0,397,397,397,1,flowers/images/143.jpg,flowers/images/391.jpg,398,s,001,2020-11-19_21h56.53.140,test1,2020.2.5,Win32,60
,,,,z,1.80191,0,398,398,398,1,flowers/images/196.jpg,flowers/images/155.jpg,399,s,001,2020-11-19_21h56.53.140,test1,2020.2.5,Win32,60
,,,,z,1.158165,0,399,399,399,1,flowers/images/281.jpg,flowers/images/394.jpg,400,s,001,2020-11-19_21h56.53.140,test1,2020.2.5,Win32,60
