key_resp.keys,key_resp.rt,key_resp_3.keys,key_resp_3.rt,key_resp_2.keys,key_resp_2.rt,trials.thisRepN,trials.thisTrialN,trials.thisN,trials.thisIndex,trials.ran,image_left,image_right,trial_num,participant,session,date,expName,psychopyVersion,OS,frameRate
space,14.68582,space,44.59829,m,9.664285,0,0,0,0,1,flowers/images/125.jpg,flowers/images/165.jpg,1,Sophia,001,2020-11-18_20h19.22.728,test1,2020.2.5,MacIntel,60
,,,,m,34.75589,0,1,1,1,1,flowers/images/168.jpg,flowers/images/195.jpg,2,Sophia,001,2020-11-18_20h19.22.728,test1,2020.2.5,MacIntel,60
,,,,m,14.429935,0,2,2,2,1,flowers/images/114.jpg,flowers/images/131.jpg,3,Sophia,001,2020-11-18_20h19.22.728,test1,2020.2.5,MacIntel,60
,,,,m,1.45327,0,3,3,3,1,flowers/images/110.jpg,flowers/images/241.jpg,4,Sophia,001,2020-11-18_20h19.22.728,test1,2020.2.5,MacIntel,60
,,,,z,1.185415,0,4,4,4,1,flowers/images/157.jpg,flowers/images/170.jpg,5,Sophia,001,2020-11-18_20h19.22.728,test1,2020.2.5,MacIntel,60
,,,,m,2.203805,0,5,5,5,1,flowers/images/291.jpg,flowers/images/302.jpg,6,Sophia,001,2020-11-18_20h19.22.728,test1,2020.2.5,MacIntel,60
,,,,z,0.902785,0,6,6,6,1,flowers/images/335.jpg,flowers/images/272.jpg,7,Sophia,001,2020-11-18_20h19.22.728,test1,2020.2.5,MacIntel,60
,,,,z,0.9755,0,7,7,7,1,flowers/images/122.jpg,flowers/images/72.jpg,8,Sophia,001,2020-11-18_20h19.22.728,test1,2020.2.5,MacIntel,60
,,,,m,0.94573,0,8,8,8,1,flowers/images/240.jpg,flowers/images/67.jpg,9,Sophia,001,2020-11-18_20h19.22.728,test1,2020.2.5,MacIntel,60
,,,,z,1.57863,0,9,9,9,1,flowers/images/324.jpg,flowers/images/180.jpg,10,Sophia,001,2020-11-18_20h19.22.728,test1,2020.2.5,MacIntel,60
,,,,m,1.058335,0,10,10,10,1,flowers/images/148.jpg,flowers/images/275.jpg,11,Sophia,001,2020-11-18_20h19.22.728,test1,2020.2.5,MacIntel,60
,,,,z,2.14202,0,11,11,11,1,flowers/images/61.jpg,flowers/images/2.jpg,12,Sophia,001,2020-11-18_20h19.22.728,test1,2020.2.5,MacIntel,60
,,,,m,1.72826,0,12,12,12,1,flowers/images/20.jpg,flowers/images/378.jpg,13,Sophia,001,2020-11-18_20h19.22.728,test1,2020.2.5,MacIntel,60
,,,,z,1.94387,0,13,13,13,1,flowers/images/181.jpg,flowers/images/363.jpg,14,Sophia,001,2020-11-18_20h19.22.728,test1,2020.2.5,MacIntel,60
,,,,m,0.97747,0,14,14,14,1,flowers/images/87.jpg,flowers/images/187.jpg,15,Sophia,001,2020-11-18_20h19.22.728,test1,2020.2.5,MacIntel,60
,,,,m,1.660415,0,15,15,15,1,flowers/images/150.jpg,flowers/images/281.jpg,16,Sophia,001,2020-11-18_20h19.22.728,test1,2020.2.5,MacIntel,60
,,,,z,1.12046,0,16,16,16,1,flowers/images/112.jpg,flowers/images/176.jpg,17,Sophia,001,2020-11-18_20h19.22.728,test1,2020.2.5,MacIntel,60
,,,,z,1.32736,0,17,17,17,1,flowers/images/236.jpg,flowers/images/243.jpg,18,Sophia,001,2020-11-18_20h19.22.728,test1,2020.2.5,MacIntel,60
,,,,z,1.338535,0,18,18,18,1,flowers/images/133.jpg,flowers/images/247.jpg,19,Sophia,001,2020-11-18_20h19.22.728,test1,2020.2.5,MacIntel,60
,,,,m,1.06045,0,19,19,19,1,flowers/images/136.jpg,flowers/images/164.jpg,20,Sophia,001,2020-11-18_20h19.22.728,test1,2020.2.5,MacIntel,60
,,,,m,1.304305,0,20,20,20,1,flowers/images/185.jpg,flowers/images/211.jpg,21,Sophia,001,2020-11-18_20h19.22.728,test1,2020.2.5,MacIntel,60
,,,,m,1.83635,0,21,21,21,1,flowers/images/118.jpg,flowers/images/371.jpg,22,Sophia,001,2020-11-18_20h19.22.728,test1,2020.2.5,MacIntel,60
,,,,z,0.91069,0,22,22,22,1,flowers/images/177.jpg,flowers/images/5.jpg,23,Sophia,001,2020-11-18_20h19.22.728,test1,2020.2.5,MacIntel,60
,,,,m,1.02171,0,23,23,23,1,flowers/images/91.jpg,flowers/images/215.jpg,24,Sophia,001,2020-11-18_20h19.22.728,test1,2020.2.5,MacIntel,60
,,,,z,0.944585,0,24,24,24,1,flowers/images/277.jpg,flowers/images/11.jpg,25,Sophia,001,2020-11-18_20h19.22.728,test1,2020.2.5,MacIntel,60
,,,,z,1.9422,0,25,25,25,1,flowers/images/197.jpg,flowers/images/25.jpg,26,Sophia,001,2020-11-18_20h19.22.728,test1,2020.2.5,MacIntel,60
,,,,m,1.009525,0,26,26,26,1,flowers/images/131.jpg,flowers/images/63.jpg,27,Sophia,001,2020-11-18_20h19.22.728,test1,2020.2.5,MacIntel,60
,,,,m,1.38809,0,27,27,27,1,flowers/images/106.jpg,flowers/images/221.jpg,28,Sophia,001,2020-11-18_20h19.22.728,test1,2020.2.5,MacIntel,60
,,,,z,0.98696,0,28,28,28,1,flowers/images/295.jpg,flowers/images/307.jpg,29,Sophia,001,2020-11-18_20h19.22.728,test1,2020.2.5,MacIntel,60
,,,,z,0.941925,0,29,29,29,1,flowers/images/368.jpg,flowers/images/384.jpg,30,Sophia,001,2020-11-18_20h19.22.728,test1,2020.2.5,MacIntel,60
,,,,m,0.927625,0,30,30,30,1,flowers/images/96.jpg,flowers/images/140.jpg,31,Sophia,001,2020-11-18_20h19.22.728,test1,2020.2.5,MacIntel,60
,,,,z,0.964125,0,31,31,31,1,flowers/images/272.jpg,flowers/images/59.jpg,32,Sophia,001,2020-11-18_20h19.22.728,test1,2020.2.5,MacIntel,60
,,,,z,0.99675,0,32,32,32,1,flowers/images/389.jpg,flowers/images/110.jpg,33,Sophia,001,2020-11-18_20h19.22.728,test1,2020.2.5,MacIntel,60
,,,,m,0.93141,0,33,33,33,1,flowers/images/237.jpg,flowers/images/387.jpg,34,Sophia,001,2020-11-18_20h19.22.728,test1,2020.2.5,MacIntel,60
,,,,z,2.294965,0,34,34,34,1,flowers/images/35.jpg,flowers/images/142.jpg,35,Sophia,001,2020-11-18_20h19.22.728,test1,2020.2.5,MacIntel,60
,,,,z,2.537385,0,35,35,35,1,flowers/images/49.jpg,flowers/images/200.jpg,36,Sophia,001,2020-11-18_20h19.22.728,test1,2020.2.5,MacIntel,60
,,,,m,1.52669,0,36,36,36,1,flowers/images/142.jpg,flowers/images/328.jpg,37,Sophia,001,2020-11-18_20h19.22.728,test1,2020.2.5,MacIntel,60
,,,,z,1.87864,0,37,37,37,1,flowers/images/339.jpg,flowers/images/264.jpg,38,Sophia,001,2020-11-18_20h19.22.728,test1,2020.2.5,MacIntel,60
,,,,m,0.912095,0,38,38,38,1,flowers/images/394.jpg,flowers/images/266.jpg,39,Sophia,001,2020-11-18_20h19.22.728,test1,2020.2.5,MacIntel,60
,,,,m,1.144985,0,39,39,39,1,flowers/images/89.jpg,flowers/images/298.jpg,40,Sophia,001,2020-11-18_20h19.22.728,test1,2020.2.5,MacIntel,60
,,,,z,1.94364,0,40,40,40,1,flowers/images/325.jpg,flowers/images/47.jpg,41,Sophia,001,2020-11-18_20h19.22.728,test1,2020.2.5,MacIntel,60
,,,,m,1.677025,0,41,41,41,1,flowers/images/40.jpg,flowers/images/162.jpg,42,Sophia,001,2020-11-18_20h19.22.728,test1,2020.2.5,MacIntel,60
,,,,z,1.03435,0,42,42,42,1,flowers/images/266.jpg,flowers/images/181.jpg,43,Sophia,001,2020-11-18_20h19.22.728,test1,2020.2.5,MacIntel,60
,,,,m,1.655495,0,43,43,43,1,flowers/images/100.jpg,flowers/images/396.jpg,44,Sophia,001,2020-11-18_20h19.22.728,test1,2020.2.5,MacIntel,60
,,,,z,2.57603,0,44,44,44,1,flowers/images/144.jpg,flowers/images/231.jpg,45,Sophia,001,2020-11-18_20h19.22.728,test1,2020.2.5,MacIntel,60
,,,,z,1.27007,0,45,45,45,1,flowers/images/289.jpg,flowers/images/202.jpg,46,Sophia,001,2020-11-18_20h19.22.728,test1,2020.2.5,MacIntel,60
,,,,m,1.061995,0,46,46,46,1,flowers/images/178.jpg,flowers/images/86.jpg,47,Sophia,001,2020-11-18_20h19.22.728,test1,2020.2.5,MacIntel,60
,,,,m,1.277905,0,47,47,47,1,flowers/images/360.jpg,flowers/images/393.jpg,48,Sophia,001,2020-11-18_20h19.22.728,test1,2020.2.5,MacIntel,60
,,,,m,1.094085,0,48,48,48,1,flowers/images/108.jpg,flowers/images/288.jpg,49,Sophia,001,2020-11-18_20h19.22.728,test1,2020.2.5,MacIntel,60
,,,,m,0.944295,0,49,49,49,1,flowers/images/165.jpg,flowers/images/154.jpg,50,Sophia,001,2020-11-18_20h19.22.728,test1,2020.2.5,MacIntel,60
,,,,m,1.08041,0,50,50,50,1,flowers/images/27.jpg,flowers/images/121.jpg,51,Sophia,001,2020-11-18_20h19.22.728,test1,2020.2.5,MacIntel,60
,,,,m,1.006705,0,51,51,51,1,flowers/images/302.jpg,flowers/images/203.jpg,52,Sophia,001,2020-11-18_20h19.22.728,test1,2020.2.5,MacIntel,60
,,,,z,1.174965,0,52,52,52,1,flowers/images/255.jpg,flowers/images/42.jpg,53,Sophia,001,2020-11-18_20h19.22.728,test1,2020.2.5,MacIntel,60
,,,,z,0.88762,0,53,53,53,1,flowers/images/31.jpg,flowers/images/289.jpg,54,Sophia,001,2020-11-18_20h19.22.728,test1,2020.2.5,MacIntel,60
,,,,m,1.393195,0,54,54,54,1,flowers/images/66.jpg,flowers/images/246.jpg,55,Sophia,001,2020-11-18_20h19.22.728,test1,2020.2.5,MacIntel,60
,,,,m,1.10255,0,55,55,55,1,flowers/images/355.jpg,flowers/images/115.jpg,56,Sophia,001,2020-11-18_20h19.22.728,test1,2020.2.5,MacIntel,60
,,,,m,1.145255,0,56,56,56,1,flowers/images/241.jpg,flowers/images/345.jpg,57,Sophia,001,2020-11-18_20h19.22.728,test1,2020.2.5,MacIntel,60
,,,,z,0.88796,0,57,57,57,1,flowers/images/296.jpg,flowers/images/37.jpg,58,Sophia,001,2020-11-18_20h19.22.728,test1,2020.2.5,MacIntel,60
,,,,m,0.94298,0,58,58,58,1,flowers/images/235.jpg,flowers/images/373.jpg,59,Sophia,001,2020-11-18_20h19.22.728,test1,2020.2.5,MacIntel,60
,,,,z,1.312755,0,59,59,59,1,flowers/images/173.jpg,flowers/images/93.jpg,60,Sophia,001,2020-11-18_20h19.22.728,test1,2020.2.5,MacIntel,60
,,,,m,0.728605,0,60,60,60,1,flowers/images/331.jpg,flowers/images/88.jpg,61,Sophia,001,2020-11-18_20h19.22.728,test1,2020.2.5,MacIntel,60
,,,,z,1.57694,0,61,61,61,1,flowers/images/134.jpg,flowers/images/127.jpg,62,Sophia,001,2020-11-18_20h19.22.728,test1,2020.2.5,MacIntel,60
,,,,z,0.944305,0,62,62,62,1,flowers/images/285.jpg,flowers/images/201.jpg,63,Sophia,001,2020-11-18_20h19.22.728,test1,2020.2.5,MacIntel,60
,,,,m,0.84461,0,63,63,63,1,flowers/images/151.jpg,flowers/images/52.jpg,64,Sophia,001,2020-11-18_20h19.22.728,test1,2020.2.5,MacIntel,60
,,,,m,1.306665,0,64,64,64,1,flowers/images/208.jpg,flowers/images/186.jpg,65,Sophia,001,2020-11-18_20h19.22.728,test1,2020.2.5,MacIntel,60
,,,,z,0.868635,0,65,65,65,1,flowers/images/80.jpg,flowers/images/124.jpg,66,Sophia,001,2020-11-18_20h19.22.728,test1,2020.2.5,MacIntel,60
,,,,m,1.310105,0,66,66,66,1,flowers/images/303.jpg,flowers/images/347.jpg,67,Sophia,001,2020-11-18_20h19.22.728,test1,2020.2.5,MacIntel,60
,,,,m,1.1667,0,67,67,67,1,flowers/images/6.jpg,flowers/images/262.jpg,68,Sophia,001,2020-11-18_20h19.22.728,test1,2020.2.5,MacIntel,60
,,,,z,1.744355,0,68,68,68,1,flowers/images/85.jpg,flowers/images/20.jpg,69,Sophia,001,2020-11-18_20h19.22.728,test1,2020.2.5,MacIntel,60
,,,,z,1.509465,0,69,69,69,1,flowers/images/392.jpg,flowers/images/15.jpg,70,Sophia,001,2020-11-18_20h19.22.728,test1,2020.2.5,MacIntel,60
,,,,z,1.394345,0,70,70,70,1,flowers/images/341.jpg,flowers/images/357.jpg,71,Sophia,001,2020-11-18_20h19.22.728,test1,2020.2.5,MacIntel,60
,,,,m,2.86157,0,71,71,71,1,flowers/images/293.jpg,flowers/images/158.jpg,72,Sophia,001,2020-11-18_20h19.22.728,test1,2020.2.5,MacIntel,60
,,,,z,1.09393,0,72,72,72,1,flowers/images/390.jpg,flowers/images/58.jpg,73,Sophia,001,2020-11-18_20h19.22.728,test1,2020.2.5,MacIntel,60
,,,,m,0.844445,0,73,73,73,1,flowers/images/82.jpg,flowers/images/16.jpg,74,Sophia,001,2020-11-18_20h19.22.728,test1,2020.2.5,MacIntel,60
,,,,m,1.513265,0,74,74,74,1,flowers/images/336.jpg,flowers/images/130.jpg,75,Sophia,001,2020-11-18_20h19.22.728,test1,2020.2.5,MacIntel,60
,,,,m,0.82092,0,75,75,75,1,flowers/images/160.jpg,flowers/images/105.jpg,76,Sophia,001,2020-11-18_20h19.22.728,test1,2020.2.5,MacIntel,60
,,,,z,0.86128,0,76,76,76,1,flowers/images/328.jpg,flowers/images/305.jpg,77,Sophia,001,2020-11-18_20h19.22.728,test1,2020.2.5,MacIntel,60
,,,,m,0.91319,0,77,77,77,1,flowers/images/180.jpg,flowers/images/249.jpg,78,Sophia,001,2020-11-18_20h19.22.728,test1,2020.2.5,MacIntel,60
,,,,m,0.811835,0,78,78,78,1,flowers/images/169.jpg,flowers/images/94.jpg,79,Sophia,001,2020-11-18_20h19.22.728,test1,2020.2.5,MacIntel,60
,,,,z,0.891295,0,79,79,79,1,flowers/images/145.jpg,flowers/images/277.jpg,80,Sophia,001,2020-11-18_20h19.22.728,test1,2020.2.5,MacIntel,60
,,,,m,0.842645,0,80,80,80,1,flowers/images/358.jpg,flowers/images/197.jpg,81,Sophia,001,2020-11-18_20h19.22.728,test1,2020.2.5,MacIntel,60
,,,,m,0.809915,0,81,81,81,1,flowers/images/71.jpg,flowers/images/128.jpg,82,Sophia,001,2020-11-18_20h19.22.728,test1,2020.2.5,MacIntel,60
,,,,m,0.891375,0,82,82,82,1,flowers/images/192.jpg,flowers/images/379.jpg,83,Sophia,001,2020-11-18_20h19.22.728,test1,2020.2.5,MacIntel,60
,,,,z,0.84384,0,83,83,83,1,flowers/images/189.jpg,flowers/images/271.jpg,84,Sophia,001,2020-11-18_20h19.22.728,test1,2020.2.5,MacIntel,60
,,,,m,0.791745,0,84,84,84,1,flowers/images/15.jpg,flowers/images/28.jpg,85,Sophia,001,2020-11-18_20h19.22.728,test1,2020.2.5,MacIntel,60
,,,,z,0.957985,0,85,85,85,1,flowers/images/171.jpg,flowers/images/97.jpg,86,Sophia,001,2020-11-18_20h19.22.728,test1,2020.2.5,MacIntel,60
,,,,m,0.78711,0,86,86,86,1,flowers/images/287.jpg,flowers/images/29.jpg,87,Sophia,001,2020-11-18_20h19.22.728,test1,2020.2.5,MacIntel,60
,,,,m,0.776315,0,87,87,87,1,flowers/images/381.jpg,flowers/images/356.jpg,88,Sophia,001,2020-11-18_20h19.22.728,test1,2020.2.5,MacIntel,60
,,,,z,0.87773,0,88,88,88,1,flowers/images/76.jpg,flowers/images/10.jpg,89,Sophia,001,2020-11-18_20h19.22.728,test1,2020.2.5,MacIntel,60
,,,,z,0.971135,0,89,89,89,1,flowers/images/239.jpg,flowers/images/226.jpg,90,Sophia,001,2020-11-18_20h19.22.728,test1,2020.2.5,MacIntel,60
,,,,m,0.79333,0,90,90,90,1,flowers/images/398.jpg,flowers/images/368.jpg,91,Sophia,001,2020-11-18_20h19.22.728,test1,2020.2.5,MacIntel,60
,,,,z,1.221005,0,91,91,91,1,flowers/images/21.jpg,flowers/images/53.jpg,92,Sophia,001,2020-11-18_20h19.22.728,test1,2020.2.5,MacIntel,60
,,,,z,1.044715,0,92,92,92,1,flowers/images/352.jpg,flowers/images/230.jpg,93,Sophia,001,2020-11-18_20h19.22.728,test1,2020.2.5,MacIntel,60
,,,,m,0.8921,0,93,93,93,1,flowers/images/54.jpg,flowers/images/280.jpg,94,Sophia,001,2020-11-18_20h19.22.728,test1,2020.2.5,MacIntel,60
,,,,z,0.87215,0,94,94,94,1,flowers/images/259.jpg,flowers/images/184.jpg,95,Sophia,001,2020-11-18_20h19.22.728,test1,2020.2.5,MacIntel,60
,,,,m,1.222635,0,95,95,95,1,flowers/images/7.jpg,flowers/images/137.jpg,96,Sophia,001,2020-11-18_20h19.22.728,test1,2020.2.5,MacIntel,60
,,,,z,1.2763,0,96,96,96,1,flowers/images/292.jpg,flowers/images/364.jpg,97,Sophia,001,2020-11-18_20h19.22.728,test1,2020.2.5,MacIntel,60
,,,,m,0.77862,0,97,97,97,1,flowers/images/84.jpg,flowers/images/245.jpg,98,Sophia,001,2020-11-18_20h19.22.728,test1,2020.2.5,MacIntel,60
,,,,z,0.96915,0,98,98,98,1,flowers/images/141.jpg,flowers/images/183.jpg,99,Sophia,001,2020-11-18_20h19.22.728,test1,2020.2.5,MacIntel,60
,,,,m,0.943205,0,99,99,99,1,flowers/images/45.jpg,flowers/images/375.jpg,100,Sophia,001,2020-11-18_20h19.22.728,test1,2020.2.5,MacIntel,60
,,,,z,0.72754,0,100,100,100,1,flowers/images/111.jpg,flowers/images/395.jpg,101,Sophia,001,2020-11-18_20h19.22.728,test1,2020.2.5,MacIntel,60
,,,,z,1.088185,0,101,101,101,1,flowers/images/46.jpg,flowers/images/360.jpg,102,Sophia,001,2020-11-18_20h19.22.728,test1,2020.2.5,MacIntel,60
,,,,z,1.05938,0,102,102,102,1,flowers/images/399.jpg,flowers/images/4.jpg,103,Sophia,001,2020-11-18_20h19.22.728,test1,2020.2.5,MacIntel,60
,,,,m,0.759755,0,103,103,103,1,flowers/images/250.jpg,flowers/images/113.jpg,104,Sophia,001,2020-11-18_20h19.22.728,test1,2020.2.5,MacIntel,60
,,,,z,0.77772,0,104,104,104,1,flowers/images/359.jpg,flowers/images/283.jpg,105,Sophia,001,2020-11-18_20h19.22.728,test1,2020.2.5,MacIntel,60
,,,,m,0.91103,0,105,105,105,1,flowers/images/209.jpg,flowers/images/309.jpg,106,Sophia,001,2020-11-18_20h19.22.728,test1,2020.2.5,MacIntel,60
,,,,m,0.72853,0,106,106,106,1,flowers/images/219.jpg,flowers/images/285.jpg,107,Sophia,001,2020-11-18_20h19.22.728,test1,2020.2.5,MacIntel,60
,,,,z,1.111385,0,107,107,107,1,flowers/images/159.jpg,flowers/images/377.jpg,108,Sophia,001,2020-11-18_20h19.22.728,test1,2020.2.5,MacIntel,60
,,,,z,1.404655,0,108,108,108,1,flowers/images/17.jpg,flowers/images/365.jpg,109,Sophia,001,2020-11-18_20h19.22.728,test1,2020.2.5,MacIntel,60
,,,,z,1.060715,0,109,109,109,1,flowers/images/247.jpg,flowers/images/14.jpg,110,Sophia,001,2020-11-18_20h19.22.728,test1,2020.2.5,MacIntel,60
,,,,z,0.959465,0,110,110,110,1,flowers/images/357.jpg,flowers/images/229.jpg,111,Sophia,001,2020-11-18_20h19.22.728,test1,2020.2.5,MacIntel,60
,,,,z,0.860435,0,111,111,111,1,flowers/images/378.jpg,flowers/images/299.jpg,112,Sophia,001,2020-11-18_20h19.22.728,test1,2020.2.5,MacIntel,60
,,,,m,1.970865,0,112,112,112,1,flowers/images/191.jpg,flowers/images/304.jpg,113,Sophia,001,2020-11-18_20h19.22.728,test1,2020.2.5,MacIntel,60
,,,,z,1.17912,0,113,113,113,1,flowers/images/195.jpg,flowers/images/44.jpg,114,Sophia,001,2020-11-18_20h19.22.728,test1,2020.2.5,MacIntel,60
,,,,m,2.27456,0,114,114,114,1,flowers/images/126.jpg,flowers/images/161.jpg,115,Sophia,001,2020-11-18_20h19.22.728,test1,2020.2.5,MacIntel,60
,,,,z,0.907955,0,115,115,115,1,flowers/images/340.jpg,flowers/images/178.jpg,116,Sophia,001,2020-11-18_20h19.22.728,test1,2020.2.5,MacIntel,60
,,,,m,0.906195,0,116,116,116,1,flowers/images/201.jpg,flowers/images/21.jpg,117,Sophia,001,2020-11-18_20h19.22.728,test1,2020.2.5,MacIntel,60
,,,,z,1.421585,0,117,117,117,1,flowers/images/307.jpg,flowers/images/122.jpg,118,Sophia,001,2020-11-18_20h19.22.728,test1,2020.2.5,MacIntel,60
,,,,m,1.57559,0,118,118,118,1,flowers/images/194.jpg,flowers/images/23.jpg,119,Sophia,001,2020-11-18_20h19.22.728,test1,2020.2.5,MacIntel,60
,,,,z,1.065425,0,119,119,119,1,flowers/images/318.jpg,flowers/images/293.jpg,120,Sophia,001,2020-11-18_20h19.22.728,test1,2020.2.5,MacIntel,60
,,,,z,0.9937,0,120,120,120,1,flowers/images/69.jpg,flowers/images/327.jpg,121,Sophia,001,2020-11-18_20h19.22.728,test1,2020.2.5,MacIntel,60
,,,,m,0.783565,0,121,121,121,1,flowers/images/98.jpg,flowers/images/208.jpg,122,Sophia,001,2020-11-18_20h19.22.728,test1,2020.2.5,MacIntel,60
,,,,z,0.762365,0,122,122,122,1,flowers/images/184.jpg,flowers/images/96.jpg,123,Sophia,001,2020-11-18_20h19.22.728,test1,2020.2.5,MacIntel,60
,,,,m,1.153915,0,123,123,123,1,flowers/images/44.jpg,flowers/images/317.jpg,124,Sophia,001,2020-11-18_20h19.22.728,test1,2020.2.5,MacIntel,60
,,,,z,0.94422,0,124,124,124,1,flowers/images/222.jpg,flowers/images/9.jpg,125,Sophia,001,2020-11-18_20h19.22.728,test1,2020.2.5,MacIntel,60
,,,,z,1.222485,0,125,125,125,1,flowers/images/218.jpg,flowers/images/153.jpg,126,Sophia,001,2020-11-18_20h19.22.728,test1,2020.2.5,MacIntel,60
,,,,z,0.887085,0,126,126,126,1,flowers/images/275.jpg,flowers/images/295.jpg,127,Sophia,001,2020-11-18_20h19.22.728,test1,2020.2.5,MacIntel,60
,,,,m,1.20881,0,127,127,127,1,flowers/images/172.jpg,flowers/images/34.jpg,128,Sophia,001,2020-11-18_20h19.22.728,test1,2020.2.5,MacIntel,60
,,,,z,1.64521,0,128,128,128,1,flowers/images/345.jpg,flowers/images/89.jpg,129,Sophia,001,2020-11-18_20h19.22.728,test1,2020.2.5,MacIntel,60
,,,,z,1.305955,0,129,129,129,1,flowers/images/334.jpg,flowers/images/376.jpg,130,Sophia,001,2020-11-18_20h19.22.728,test1,2020.2.5,MacIntel,60
,,,,z,0.878615,0,130,130,130,1,flowers/images/93.jpg,flowers/images/6.jpg,131,Sophia,001,2020-11-18_20h19.22.728,test1,2020.2.5,MacIntel,60
,,,,m,0.778005,0,131,131,131,1,flowers/images/183.jpg,flowers/images/76.jpg,132,Sophia,001,2020-11-18_20h19.22.728,test1,2020.2.5,MacIntel,60
,,,,z,0.80218,0,132,132,132,1,flowers/images/304.jpg,flowers/images/224.jpg,133,Sophia,001,2020-11-18_20h19.22.728,test1,2020.2.5,MacIntel,60
,,,,m,1.753565,0,133,133,133,1,flowers/images/330.jpg,flowers/images/81.jpg,134,Sophia,001,2020-11-18_20h19.22.728,test1,2020.2.5,MacIntel,60
,,,,m,0.64223,0,134,134,134,1,flowers/images/147.jpg,flowers/images/36.jpg,135,Sophia,001,2020-11-18_20h19.22.728,test1,2020.2.5,MacIntel,60
,,,,m,0.91013,0,135,135,135,1,flowers/images/62.jpg,flowers/images/321.jpg,136,Sophia,001,2020-11-18_20h19.22.728,test1,2020.2.5,MacIntel,60
,,,,m,0.944955,0,136,136,136,1,flowers/images/367.jpg,flowers/images/311.jpg,137,Sophia,001,2020-11-18_20h19.22.728,test1,2020.2.5,MacIntel,60
,,,,z,0.76085,0,137,137,137,1,flowers/images/326.jpg,flowers/images/7.jpg,138,Sophia,001,2020-11-18_20h19.22.728,test1,2020.2.5,MacIntel,60
,,,,m,0.713755,0,138,138,138,1,flowers/images/28.jpg,flowers/images/382.jpg,139,Sophia,001,2020-11-18_20h19.22.728,test1,2020.2.5,MacIntel,60
,,,,z,0.746435,0,139,139,139,1,flowers/images/156.jpg,flowers/images/152.jpg,140,Sophia,001,2020-11-18_20h19.22.728,test1,2020.2.5,MacIntel,60
,,,,z,0.927785,0,140,140,140,1,flowers/images/113.jpg,flowers/images/167.jpg,141,Sophia,001,2020-11-18_20h19.22.728,test1,2020.2.5,MacIntel,60
,,,,m,0.77773,0,141,141,141,1,flowers/images/155.jpg,flowers/images/342.jpg,142,Sophia,001,2020-11-18_20h19.22.728,test1,2020.2.5,MacIntel,60
,,,,z,0.744525,0,142,142,142,1,flowers/images/213.jpg,flowers/images/353.jpg,143,Sophia,001,2020-11-18_20h19.22.728,test1,2020.2.5,MacIntel,60
,,,,m,0.66076,0,143,143,143,1,flowers/images/298.jpg,flowers/images/90.jpg,144,Sophia,001,2020-11-18_20h19.22.728,test1,2020.2.5,MacIntel,60
,,,,z,0.75409,0,144,144,144,1,flowers/images/217.jpg,flowers/images/240.jpg,145,Sophia,001,2020-11-18_20h19.22.728,test1,2020.2.5,MacIntel,60
,,,,m,0.74461,0,145,145,145,1,flowers/images/97.jpg,flowers/images/133.jpg,146,Sophia,001,2020-11-18_20h19.22.728,test1,2020.2.5,MacIntel,60
,,,,m,0.66242,0,146,146,146,1,flowers/images/354.jpg,flowers/images/310.jpg,147,Sophia,001,2020-11-18_20h19.22.728,test1,2020.2.5,MacIntel,60
,,,,z,0.92927,0,147,147,147,1,flowers/images/377.jpg,flowers/images/273.jpg,148,Sophia,001,2020-11-18_20h19.22.728,test1,2020.2.5,MacIntel,60
,,,,m,0.79489,0,148,148,148,1,flowers/images/121.jpg,flowers/images/294.jpg,149,Sophia,001,2020-11-18_20h19.22.728,test1,2020.2.5,MacIntel,60
,,,,m,0.94596,0,149,149,149,1,flowers/images/14.jpg,flowers/images/101.jpg,150,Sophia,001,2020-11-18_20h19.22.728,test1,2020.2.5,MacIntel,60
,,,,z,0.721305,0,150,150,150,1,flowers/images/321.jpg,flowers/images/51.jpg,151,Sophia,001,2020-11-18_20h19.22.728,test1,2020.2.5,MacIntel,60
,,,,m,0.905625,0,151,151,151,1,flowers/images/362.jpg,flowers/images/175.jpg,152,Sophia,001,2020-11-18_20h19.22.728,test1,2020.2.5,MacIntel,60
,,,,z,2.095755,0,152,152,152,1,flowers/images/203.jpg,flowers/images/248.jpg,153,Sophia,001,2020-11-18_20h19.22.728,test1,2020.2.5,MacIntel,60
,,,,m,1.252265,0,153,153,153,1,flowers/images/12.jpg,flowers/images/300.jpg,154,Sophia,001,2020-11-18_20h19.22.728,test1,2020.2.5,MacIntel,60
,,,,z,0.94365,0,154,154,154,1,flowers/images/365.jpg,flowers/images/218.jpg,155,Sophia,001,2020-11-18_20h19.22.728,test1,2020.2.5,MacIntel,60
,,,,z,1.087035,0,155,155,155,1,flowers/images/75.jpg,flowers/images/109.jpg,156,Sophia,001,2020-11-18_20h19.22.728,test1,2020.2.5,MacIntel,60
,,,,m,1.026835,0,156,156,156,1,flowers/images/127.jpg,flowers/images/333.jpg,157,Sophia,001,2020-11-18_20h19.22.728,test1,2020.2.5,MacIntel,60
,,,,z,1.62774,0,157,157,157,1,flowers/images/258.jpg,flowers/images/135.jpg,158,Sophia,001,2020-11-18_20h19.22.728,test1,2020.2.5,MacIntel,60
,,,,z,1.004455,0,158,158,158,1,flowers/images/343.jpg,flowers/images/65.jpg,159,Sophia,001,2020-11-18_20h19.22.728,test1,2020.2.5,MacIntel,60
,,,,z,1.12778,0,159,159,159,1,flowers/images/58.jpg,flowers/images/138.jpg,160,Sophia,001,2020-11-18_20h19.22.728,test1,2020.2.5,MacIntel,60
,,,,z,0.937365,0,160,160,160,1,flowers/images/94.jpg,flowers/images/234.jpg,161,Sophia,001,2020-11-18_20h19.22.728,test1,2020.2.5,MacIntel,60
,,,,z,0.922285,0,161,161,161,1,flowers/images/379.jpg,flowers/images/207.jpg,162,Sophia,001,2020-11-18_20h19.22.728,test1,2020.2.5,MacIntel,60
,,,,z,0.836425,0,162,162,162,1,flowers/images/128.jpg,flowers/images/79.jpg,163,Sophia,001,2020-11-18_20h19.22.728,test1,2020.2.5,MacIntel,60
,,,,z,0.85508,0,163,163,163,1,flowers/images/47.jpg,flowers/images/85.jpg,164,Sophia,001,2020-11-18_20h19.22.728,test1,2020.2.5,MacIntel,60
,,,,z,0.836635,0,164,164,164,1,flowers/images/19.jpg,flowers/images/191.jpg,165,Sophia,001,2020-11-18_20h19.22.728,test1,2020.2.5,MacIntel,60
,,,,m,0.81278,0,165,165,165,1,flowers/images/32.jpg,flowers/images/259.jpg,166,Sophia,001,2020-11-18_20h19.22.728,test1,2020.2.5,MacIntel,60
,,,,m,1.408815,0,166,166,166,1,flowers/images/323.jpg,flowers/images/284.jpg,167,Sophia,001,2020-11-18_20h19.22.728,test1,2020.2.5,MacIntel,60
,,,,z,0.872135,0,167,167,167,1,flowers/images/395.jpg,flowers/images/348.jpg,168,Sophia,001,2020-11-18_20h19.22.728,test1,2020.2.5,MacIntel,60
,,,,m,0.79112,0,168,168,168,1,flowers/images/279.jpg,flowers/images/370.jpg,169,Sophia,001,2020-11-18_20h19.22.728,test1,2020.2.5,MacIntel,60
,,,,z,0.716625,0,169,169,169,1,flowers/images/264.jpg,flowers/images/125.jpg,170,Sophia,001,2020-11-18_20h19.22.728,test1,2020.2.5,MacIntel,60
,,,,m,0.723595,0,170,170,170,1,flowers/images/77.jpg,flowers/images/318.jpg,171,Sophia,001,2020-11-18_20h19.22.728,test1,2020.2.5,MacIntel,60
,,,,m,0.76108,0,171,171,171,1,flowers/images/376.jpg,flowers/images/242.jpg,172,Sophia,001,2020-11-18_20h19.22.728,test1,2020.2.5,MacIntel,60
,,,,z,0.803575,0,172,172,172,1,flowers/images/351.jpg,flowers/images/132.jpg,173,Sophia,001,2020-11-18_20h19.22.728,test1,2020.2.5,MacIntel,60
,,,,m,0.6864,0,173,173,173,1,flowers/images/305.jpg,flowers/images/252.jpg,174,Sophia,001,2020-11-18_20h19.22.728,test1,2020.2.5,MacIntel,60
,,,,m,0.94483,0,174,174,174,1,flowers/images/29.jpg,flowers/images/217.jpg,175,Sophia,001,2020-11-18_20h19.22.728,test1,2020.2.5,MacIntel,60
,,,,m,1.01611,0,175,175,175,1,flowers/images/3.jpg,flowers/images/228.jpg,176,Sophia,001,2020-11-18_20h19.22.728,test1,2020.2.5,MacIntel,60
,,,,z,0.960845,0,176,176,176,1,flowers/images/199.jpg,flowers/images/330.jpg,177,Sophia,001,2020-11-18_20h19.22.728,test1,2020.2.5,MacIntel,60
,,,,z,1.156335,0,177,177,177,1,flowers/images/274.jpg,flowers/images/179.jpg,178,Sophia,001,2020-11-18_20h19.22.728,test1,2020.2.5,MacIntel,60
,,,,m,0.72468,0,178,178,178,1,flowers/images/346.jpg,flowers/images/290.jpg,179,Sophia,001,2020-11-18_20h19.22.728,test1,2020.2.5,MacIntel,60
,,,,m,0.793435,0,179,179,179,1,flowers/images/56.jpg,flowers/images/204.jpg,180,Sophia,001,2020-11-18_20h19.22.728,test1,2020.2.5,MacIntel,60
,,,,m,0.778355,0,180,180,180,1,flowers/images/179.jpg,flowers/images/114.jpg,181,Sophia,001,2020-11-18_20h19.22.728,test1,2020.2.5,MacIntel,60
,,,,z,0.938335,0,181,181,181,1,flowers/images/36.jpg,flowers/images/223.jpg,182,Sophia,001,2020-11-18_20h19.22.728,test1,2020.2.5,MacIntel,60
,,,,m,0.72743,0,182,182,182,1,flowers/images/344.jpg,flowers/images/168.jpg,183,Sophia,001,2020-11-18_20h19.22.728,test1,2020.2.5,MacIntel,60
,,,,z,0.727815,0,183,183,183,1,flowers/images/153.jpg,flowers/images/22.jpg,184,Sophia,001,2020-11-18_20h19.22.728,test1,2020.2.5,MacIntel,60
,,,,m,0.661585,0,184,184,184,1,flowers/images/39.jpg,flowers/images/323.jpg,185,Sophia,001,2020-11-18_20h19.22.728,test1,2020.2.5,MacIntel,60
,,,,z,1.002505,0,185,185,185,1,flowers/images/327.jpg,flowers/images/349.jpg,186,Sophia,001,2020-11-18_20h19.22.728,test1,2020.2.5,MacIntel,60
,,,,m,0.6367,0,186,186,186,1,flowers/images/81.jpg,flowers/images/30.jpg,187,Sophia,001,2020-11-18_20h19.22.728,test1,2020.2.5,MacIntel,60
,,,,z,0.86117,0,187,187,187,1,flowers/images/42.jpg,flowers/images/107.jpg,188,Sophia,001,2020-11-18_20h19.22.728,test1,2020.2.5,MacIntel,60
,,,,m,0.746485,0,188,188,188,1,flowers/images/18.jpg,flowers/images/358.jpg,189,Sophia,001,2020-11-18_20h19.22.728,test1,2020.2.5,MacIntel,60
,,,,z,0.810275,0,189,189,189,1,flowers/images/200.jpg,flowers/images/385.jpg,190,Sophia,001,2020-11-18_20h19.22.728,test1,2020.2.5,MacIntel,60
,,,,m,0.74436,0,190,190,190,1,flowers/images/369.jpg,flowers/images/233.jpg,191,Sophia,001,2020-11-18_20h19.22.728,test1,2020.2.5,MacIntel,60
,,,,m,2.027995,0,191,191,191,1,flowers/images/309.jpg,flowers/images/320.jpg,192,Sophia,001,2020-11-18_20h19.22.728,test1,2020.2.5,MacIntel,60
,,,,m,1.311465,0,192,192,192,1,flowers/images/64.jpg,flowers/images/303.jpg,193,Sophia,001,2020-11-18_20h19.22.728,test1,2020.2.5,MacIntel,60
,,,,m,1.50978,0,193,193,193,1,flowers/images/86.jpg,flowers/images/216.jpg,194,Sophia,001,2020-11-18_20h19.22.728,test1,2020.2.5,MacIntel,60
,,,,m,0.772725,0,194,194,194,1,flowers/images/260.jpg,flowers/images/361.jpg,195,Sophia,001,2020-11-18_20h19.22.728,test1,2020.2.5,MacIntel,60
,,,,m,0.827135,0,195,195,195,1,flowers/images/9.jpg,flowers/images/173.jpg,196,Sophia,001,2020-11-18_20h19.22.728,test1,2020.2.5,MacIntel,60
,,,,m,1.19849,0,196,196,196,1,flowers/images/22.jpg,flowers/images/41.jpg,197,Sophia,001,2020-11-18_20h19.22.728,test1,2020.2.5,MacIntel,60
,,,,z,0.81226,0,197,197,197,1,flowers/images/214.jpg,flowers/images/145.jpg,198,Sophia,001,2020-11-18_20h19.22.728,test1,2020.2.5,MacIntel,60
,,,,m,0.743345,0,198,198,198,1,flowers/images/72.jpg,flowers/images/308.jpg,199,Sophia,001,2020-11-18_20h19.22.728,test1,2020.2.5,MacIntel,60
,,,,z,0.996045,0,199,199,199,1,flowers/images/34.jpg,flowers/images/237.jpg,200,Sophia,001,2020-11-18_20h19.22.728,test1,2020.2.5,MacIntel,60
,,,,m,0.744605,0,200,200,200,1,flowers/images/166.jpg,flowers/images/169.jpg,201,Sophia,001,2020-11-18_20h19.22.728,test1,2020.2.5,MacIntel,60
,,,,m,0.86215,0,201,201,201,1,flowers/images/161.jpg,flowers/images/68.jpg,202,Sophia,001,2020-11-18_20h19.22.728,test1,2020.2.5,MacIntel,60
,,,,z,0.971635,0,202,202,202,1,flowers/images/319.jpg,flowers/images/341.jpg,203,Sophia,001,2020-11-18_20h19.22.728,test1,2020.2.5,MacIntel,60
,,,,z,1.34563,0,203,203,203,1,flowers/images/322.jpg,flowers/images/111.jpg,204,Sophia,001,2020-11-18_20h19.22.728,test1,2020.2.5,MacIntel,60
,,,,z,1.077795,0,204,204,204,1,flowers/images/2.jpg,flowers/images/95.jpg,205,Sophia,001,2020-11-18_20h19.22.728,test1,2020.2.5,MacIntel,60
,,,,z,1.34456,0,205,205,205,1,flowers/images/276.jpg,flowers/images/66.jpg,206,Sophia,001,2020-11-18_20h19.22.728,test1,2020.2.5,MacIntel,60
,,,,m,1.005585,0,206,206,206,1,flowers/images/116.jpg,flowers/images/206.jpg,207,Sophia,001,2020-11-18_20h19.22.728,test1,2020.2.5,MacIntel,60
,,,,z,1.08691,0,207,207,207,1,flowers/images/282.jpg,flowers/images/314.jpg,208,Sophia,001,2020-11-18_20h19.22.728,test1,2020.2.5,MacIntel,60
,,,,z,0.929345,0,208,208,208,1,flowers/images/261.jpg,flowers/images/260.jpg,209,Sophia,001,2020-11-18_20h19.22.728,test1,2020.2.5,MacIntel,60
,,,,z,1.111325,0,209,209,209,1,flowers/images/353.jpg,flowers/images/151.jpg,210,Sophia,001,2020-11-18_20h19.22.728,test1,2020.2.5,MacIntel,60
,,,,m,1.81462,0,210,210,210,1,flowers/images/216.jpg,flowers/images/156.jpg,211,Sophia,001,2020-11-18_20h19.22.728,test1,2020.2.5,MacIntel,60
,,,,m,1.062425,0,211,211,211,1,flowers/images/320.jpg,flowers/images/292.jpg,212,Sophia,001,2020-11-18_20h19.22.728,test1,2020.2.5,MacIntel,60
,,,,m,2.0048,0,212,212,212,1,flowers/images/149.jpg,flowers/images/279.jpg,213,Sophia,001,2020-11-18_20h19.22.728,test1,2020.2.5,MacIntel,60
,,,,m,1.24464,0,213,213,213,1,flowers/images/163.jpg,flowers/images/219.jpg,214,Sophia,001,2020-11-18_20h19.22.728,test1,2020.2.5,MacIntel,60
,,,,m,1.41357,0,214,214,214,1,flowers/images/10.jpg,flowers/images/232.jpg,215,Sophia,001,2020-11-18_20h19.22.728,test1,2020.2.5,MacIntel,60
,,,,m,0.938345,0,215,215,215,1,flowers/images/55.jpg,flowers/images/73.jpg,216,Sophia,001,2020-11-18_20h19.22.728,test1,2020.2.5,MacIntel,60
,,,,z,0.975925,0,216,216,216,1,flowers/images/123.jpg,flowers/images/189.jpg,217,Sophia,001,2020-11-18_20h19.22.728,test1,2020.2.5,MacIntel,60
,,,,m,0.780375,0,217,217,217,1,flowers/images/37.jpg,flowers/images/254.jpg,218,Sophia,001,2020-11-18_20h19.22.728,test1,2020.2.5,MacIntel,60
,,,,m,1.46321,0,218,218,218,1,flowers/images/230.jpg,flowers/images/166.jpg,219,Sophia,001,2020-11-18_20h19.22.728,test1,2020.2.5,MacIntel,60
,,,,m,1.094685,0,219,219,219,1,flowers/images/338.jpg,flowers/images/33.jpg,220,Sophia,001,2020-11-18_20h19.22.728,test1,2020.2.5,MacIntel,60
,,,,z,0.91228,0,220,220,220,1,flowers/images/337.jpg,flowers/images/193.jpg,221,Sophia,001,2020-11-18_20h19.22.728,test1,2020.2.5,MacIntel,60
,,,,m,0.812275,0,221,221,221,1,flowers/images/83.jpg,flowers/images/339.jpg,222,Sophia,001,2020-11-18_20h19.22.728,test1,2020.2.5,MacIntel,60
,,,,z,1.14217,0,222,222,222,1,flowers/images/190.jpg,flowers/images/99.jpg,223,Sophia,001,2020-11-18_20h19.22.728,test1,2020.2.5,MacIntel,60
,,,,m,0.719095,0,223,223,223,1,flowers/images/257.jpg,flowers/images/369.jpg,224,Sophia,001,2020-11-18_20h19.22.728,test1,2020.2.5,MacIntel,60
,,,,z,1.023625,0,224,224,224,1,flowers/images/280.jpg,flowers/images/355.jpg,225,Sophia,001,2020-11-18_20h19.22.728,test1,2020.2.5,MacIntel,60
,,,,m,0.7775,0,225,225,225,1,flowers/images/105.jpg,flowers/images/338.jpg,226,Sophia,001,2020-11-18_20h19.22.728,test1,2020.2.5,MacIntel,60
,,,,z,1.758375,0,226,226,226,1,flowers/images/202.jpg,flowers/images/3.jpg,227,Sophia,001,2020-11-18_20h19.22.728,test1,2020.2.5,MacIntel,60
,,,,m,0.645295,0,227,227,227,1,flowers/images/212.jpg,flowers/images/38.jpg,228,Sophia,001,2020-11-18_20h19.22.728,test1,2020.2.5,MacIntel,60
,,,,m,1.713015,0,228,228,228,1,flowers/images/152.jpg,flowers/images/0.jpg,229,Sophia,001,2020-11-18_20h19.22.728,test1,2020.2.5,MacIntel,60
,,,,m,1.457335,0,229,229,229,1,flowers/images/170.jpg,flowers/images/296.jpg,230,Sophia,001,2020-11-18_20h19.22.728,test1,2020.2.5,MacIntel,60
,,,,m,0.743165,0,230,230,230,1,flowers/images/74.jpg,flowers/images/80.jpg,231,Sophia,001,2020-11-18_20h19.22.728,test1,2020.2.5,MacIntel,60
,,,,z,1.290025,0,231,231,231,1,flowers/images/226.jpg,flowers/images/117.jpg,232,Sophia,001,2020-11-18_20h19.22.728,test1,2020.2.5,MacIntel,60
,,,,m,0.726455,0,232,232,232,1,flowers/images/1.jpg,flowers/images/19.jpg,233,Sophia,001,2020-11-18_20h19.22.728,test1,2020.2.5,MacIntel,60
,,,,z,1.06078,0,233,233,233,1,flowers/images/182.jpg,flowers/images/335.jpg,234,Sophia,001,2020-11-18_20h19.22.728,test1,2020.2.5,MacIntel,60
,,,,z,1.046775,0,234,234,234,1,flowers/images/245.jpg,flowers/images/62.jpg,235,Sophia,001,2020-11-18_20h19.22.728,test1,2020.2.5,MacIntel,60
,,,,m,0.788005,0,235,235,235,1,flowers/images/167.jpg,flowers/images/49.jpg,236,Sophia,001,2020-11-18_20h19.22.728,test1,2020.2.5,MacIntel,60
,,,,z,0.81011,0,236,236,236,1,flowers/images/38.jpg,flowers/images/250.jpg,237,Sophia,001,2020-11-18_20h19.22.728,test1,2020.2.5,MacIntel,60
,,,,m,0.85514,0,237,237,237,1,flowers/images/124.jpg,flowers/images/324.jpg,238,Sophia,001,2020-11-18_20h19.22.728,test1,2020.2.5,MacIntel,60
,,,,m,1.22105,0,238,238,238,1,flowers/images/92.jpg,flowers/images/13.jpg,239,Sophia,001,2020-11-18_20h19.22.728,test1,2020.2.5,MacIntel,60
,,,,z,0.96138,0,239,239,239,1,flowers/images/120.jpg,flowers/images/374.jpg,240,Sophia,001,2020-11-18_20h19.22.728,test1,2020.2.5,MacIntel,60
,,,,z,1.046595,0,240,240,240,1,flowers/images/350.jpg,flowers/images/100.jpg,241,Sophia,001,2020-11-18_20h19.22.728,test1,2020.2.5,MacIntel,60
,,,,m,0.846695,0,241,241,241,1,flowers/images/68.jpg,flowers/images/236.jpg,242,Sophia,001,2020-11-18_20h19.22.728,test1,2020.2.5,MacIntel,60
,,,,m,1.195605,0,242,242,242,1,flowers/images/5.jpg,flowers/images/340.jpg,243,Sophia,001,2020-11-18_20h19.22.728,test1,2020.2.5,MacIntel,60
,,,,m,1.03012,0,243,243,243,1,flowers/images/99.jpg,flowers/images/313.jpg,244,Sophia,001,2020-11-18_20h19.22.728,test1,2020.2.5,MacIntel,60
,,,,z,1.72934,0,244,244,244,1,flowers/images/229.jpg,flowers/images/177.jpg,245,Sophia,001,2020-11-18_20h19.22.728,test1,2020.2.5,MacIntel,60
,,,,z,0.820445,0,245,245,245,1,flowers/images/361.jpg,flowers/images/383.jpg,246,Sophia,001,2020-11-18_20h19.22.728,test1,2020.2.5,MacIntel,60
,,,,z,1.42692,0,246,246,246,1,flowers/images/129.jpg,flowers/images/398.jpg,247,Sophia,001,2020-11-18_20h19.22.728,test1,2020.2.5,MacIntel,60
,,,,z,0.8114,0,247,247,247,1,flowers/images/228.jpg,flowers/images/159.jpg,248,Sophia,001,2020-11-18_20h19.22.728,test1,2020.2.5,MacIntel,60
,,,,z,1.59343,0,248,248,248,1,flowers/images/65.jpg,flowers/images/312.jpg,249,Sophia,001,2020-11-18_20h19.22.728,test1,2020.2.5,MacIntel,60
,,,,z,0.93948,0,249,249,249,1,flowers/images/73.jpg,flowers/images/163.jpg,250,Sophia,001,2020-11-18_20h19.22.728,test1,2020.2.5,MacIntel,60
,,,,m,1.26981,0,250,250,250,1,flowers/images/224.jpg,flowers/images/278.jpg,251,Sophia,001,2020-11-18_20h19.22.728,test1,2020.2.5,MacIntel,60
,,,,m,0.90976,0,251,251,251,1,flowers/images/312.jpg,flowers/images/185.jpg,252,Sophia,001,2020-11-18_20h19.22.728,test1,2020.2.5,MacIntel,60
,,,,m,0.673495,0,252,252,252,1,flowers/images/256.jpg,flowers/images/112.jpg,253,Sophia,001,2020-11-18_20h19.22.728,test1,2020.2.5,MacIntel,60
,,,,m,0.893955,0,253,253,253,1,flowers/images/26.jpg,flowers/images/261.jpg,254,Sophia,001,2020-11-18_20h19.22.728,test1,2020.2.5,MacIntel,60
,,,,z,0.853995,0,254,254,254,1,flowers/images/51.jpg,flowers/images/106.jpg,255,Sophia,001,2020-11-18_20h19.22.728,test1,2020.2.5,MacIntel,60
,,,,m,0.880215,0,255,255,255,1,flowers/images/371.jpg,flowers/images/160.jpg,256,Sophia,001,2020-11-18_20h19.22.728,test1,2020.2.5,MacIntel,60
,,,,z,1.547005,0,256,256,256,1,flowers/images/59.jpg,flowers/images/257.jpg,257,Sophia,001,2020-11-18_20h19.22.728,test1,2020.2.5,MacIntel,60
,,,,z,1.0218,0,257,257,257,1,flowers/images/347.jpg,flowers/images/190.jpg,258,Sophia,001,2020-11-18_20h19.22.728,test1,2020.2.5,MacIntel,60
,,,,z,1.026465,0,258,258,258,1,flowers/images/8.jpg,flowers/images/209.jpg,259,Sophia,001,2020-11-18_20h19.22.728,test1,2020.2.5,MacIntel,60
,,,,m,0.912445,0,259,259,259,1,flowers/images/278.jpg,flowers/images/31.jpg,260,Sophia,001,2020-11-18_20h19.22.728,test1,2020.2.5,MacIntel,60
,,,,z,0.804535,0,260,260,260,1,flowers/images/262.jpg,flowers/images/325.jpg,261,Sophia,001,2020-11-18_20h19.22.728,test1,2020.2.5,MacIntel,60
,,,,m,0.76239,0,261,261,261,1,flowers/images/273.jpg,flowers/images/83.jpg,262,Sophia,001,2020-11-18_20h19.22.728,test1,2020.2.5,MacIntel,60
,,,,m,3.08876,0,262,262,262,1,flowers/images/52.jpg,flowers/images/17.jpg,263,Sophia,001,2020-11-18_20h19.22.728,test1,2020.2.5,MacIntel,60
,,,,m,0.990885,0,263,263,263,1,flowers/images/243.jpg,flowers/images/27.jpg,264,Sophia,001,2020-11-18_20h19.22.728,test1,2020.2.5,MacIntel,60
,,,,z,1.37828,0,264,264,264,1,flowers/images/175.jpg,flowers/images/192.jpg,265,Sophia,001,2020-11-18_20h19.22.728,test1,2020.2.5,MacIntel,60
,,,,z,0.96261,0,265,265,265,1,flowers/images/53.jpg,flowers/images/199.jpg,266,Sophia,001,2020-11-18_20h19.22.728,test1,2020.2.5,MacIntel,60
,,,,z,0.91217,0,266,266,266,1,flowers/images/316.jpg,flowers/images/381.jpg,267,Sophia,001,2020-11-18_20h19.22.728,test1,2020.2.5,MacIntel,60
,,,,z,0.82324,0,267,267,267,1,flowers/images/249.jpg,flowers/images/213.jpg,268,Sophia,001,2020-11-18_20h19.22.728,test1,2020.2.5,MacIntel,60
,,,,z,0.90916,0,268,268,268,1,flowers/images/70.jpg,flowers/images/60.jpg,269,Sophia,001,2020-11-18_20h19.22.728,test1,2020.2.5,MacIntel,60
,,,,z,1.010445,0,269,269,269,1,flowers/images/300.jpg,flowers/images/386.jpg,270,Sophia,001,2020-11-18_20h19.22.728,test1,2020.2.5,MacIntel,60
,,,,m,0.839835,0,270,270,270,1,flowers/images/162.jpg,flowers/images/149.jpg,271,Sophia,001,2020-11-18_20h19.22.728,test1,2020.2.5,MacIntel,60
,,,,m,0.9601,0,271,271,271,1,flowers/images/146.jpg,flowers/images/336.jpg,272,Sophia,001,2020-11-18_20h19.22.728,test1,2020.2.5,MacIntel,60
,,,,z,0.814065,0,272,272,272,1,flowers/images/115.jpg,flowers/images/120.jpg,273,Sophia,001,2020-11-18_20h19.22.728,test1,2020.2.5,MacIntel,60
,,,,m,0.762505,0,273,273,273,1,flowers/images/311.jpg,flowers/images/123.jpg,274,Sophia,001,2020-11-18_20h19.22.728,test1,2020.2.5,MacIntel,60
,,,,z,0.789745,0,274,274,274,1,flowers/images/33.jpg,flowers/images/146.jpg,275,Sophia,001,2020-11-18_20h19.22.728,test1,2020.2.5,MacIntel,60
,,,,m,1.160265,0,275,275,275,1,flowers/images/78.jpg,flowers/images/352.jpg,276,Sophia,001,2020-11-18_20h19.22.728,test1,2020.2.5,MacIntel,60
,,,,m,1.533535,0,276,276,276,1,flowers/images/43.jpg,flowers/images/50.jpg,277,Sophia,001,2020-11-18_20h19.22.728,test1,2020.2.5,MacIntel,60
,,,,z,1.24516,0,277,277,277,1,flowers/images/373.jpg,flowers/images/78.jpg,278,Sophia,001,2020-11-18_20h19.22.728,test1,2020.2.5,MacIntel,60
,,,,z,1.52723,0,278,278,278,1,flowers/images/233.jpg,flowers/images/134.jpg,279,Sophia,001,2020-11-18_20h19.22.728,test1,2020.2.5,MacIntel,60
,,,,z,1.213205,0,279,279,279,1,flowers/images/386.jpg,flowers/images/390.jpg,280,Sophia,001,2020-11-18_20h19.22.728,test1,2020.2.5,MacIntel,60
,,,,m,1.04407,0,280,280,280,1,flowers/images/205.jpg,flowers/images/388.jpg,281,Sophia,001,2020-11-18_20h19.22.728,test1,2020.2.5,MacIntel,60
,,,,m,1.07812,0,281,281,281,1,flowers/images/130.jpg,flowers/images/48.jpg,282,Sophia,001,2020-11-18_20h19.22.728,test1,2020.2.5,MacIntel,60
,,,,z,0.779,0,282,282,282,1,flowers/images/187.jpg,flowers/images/253.jpg,283,Sophia,001,2020-11-18_20h19.22.728,test1,2020.2.5,MacIntel,60
,,,,m,0.69509,0,283,283,283,1,flowers/images/232.jpg,flowers/images/141.jpg,284,Sophia,001,2020-11-18_20h19.22.728,test1,2020.2.5,MacIntel,60
,,,,m,0.730015,0,284,284,284,1,flowers/images/253.jpg,flowers/images/71.jpg,285,Sophia,001,2020-11-18_20h19.22.728,test1,2020.2.5,MacIntel,60
,,,,z,0.77687,0,285,285,285,1,flowers/images/332.jpg,flowers/images/322.jpg,286,Sophia,001,2020-11-18_20h19.22.728,test1,2020.2.5,MacIntel,60
,,,,m,0.776355,0,286,286,286,1,flowers/images/103.jpg,flowers/images/182.jpg,287,Sophia,001,2020-11-18_20h19.22.728,test1,2020.2.5,MacIntel,60
,,,,m,0.80464,0,287,287,287,1,flowers/images/271.jpg,flowers/images/103.jpg,288,Sophia,001,2020-11-18_20h19.22.728,test1,2020.2.5,MacIntel,60
,,,,z,0.66151,0,288,288,288,1,flowers/images/63.jpg,flowers/images/227.jpg,289,Sophia,001,2020-11-18_20h19.22.728,test1,2020.2.5,MacIntel,60
,,,,m,0.82807,0,289,289,289,1,flowers/images/382.jpg,flowers/images/359.jpg,290,Sophia,001,2020-11-18_20h19.22.728,test1,2020.2.5,MacIntel,60
,,,,z,0.678125,0,290,290,290,1,flowers/images/252.jpg,flowers/images/87.jpg,291,Sophia,001,2020-11-18_20h19.22.728,test1,2020.2.5,MacIntel,60
,,,,m,0.6972,0,291,291,291,1,flowers/images/101.jpg,flowers/images/196.jpg,292,Sophia,001,2020-11-18_20h19.22.728,test1,2020.2.5,MacIntel,60
,,,,m,0.644645,0,292,292,292,1,flowers/images/104.jpg,flowers/images/270.jpg,293,Sophia,001,2020-11-18_20h19.22.728,test1,2020.2.5,MacIntel,60
,,,,z,0.696015,0,293,293,293,1,flowers/images/270.jpg,flowers/images/108.jpg,294,Sophia,001,2020-11-18_20h19.22.728,test1,2020.2.5,MacIntel,60
,,,,m,0.67165,0,294,294,294,1,flowers/images/0.jpg,flowers/images/143.jpg,295,Sophia,001,2020-11-18_20h19.22.728,test1,2020.2.5,MacIntel,60
,,,,m,0.73704,0,295,295,295,1,flowers/images/348.jpg,flowers/images/276.jpg,296,Sophia,001,2020-11-18_20h19.22.728,test1,2020.2.5,MacIntel,60
,,,,m,0.878645,0,296,296,296,1,flowers/images/251.jpg,flowers/images/55.jpg,297,Sophia,001,2020-11-18_20h19.22.728,test1,2020.2.5,MacIntel,60
,,,,m,0.86961,0,297,297,297,1,flowers/images/119.jpg,flowers/images/43.jpg,298,Sophia,001,2020-11-18_20h19.22.728,test1,2020.2.5,MacIntel,60
,,,,z,0.82897,0,298,298,298,1,flowers/images/158.jpg,flowers/images/46.jpg,299,Sophia,001,2020-11-18_20h19.22.728,test1,2020.2.5,MacIntel,60
,,,,m,0.676325,0,299,299,299,1,flowers/images/297.jpg,flowers/images/205.jpg,300,Sophia,001,2020-11-18_20h19.22.728,test1,2020.2.5,MacIntel,60
,,,,m,0.806145,0,300,300,300,1,flowers/images/25.jpg,flowers/images/54.jpg,301,Sophia,001,2020-11-18_20h19.22.728,test1,2020.2.5,MacIntel,60
,,,,z,0.65398,0,301,301,301,1,flowers/images/67.jpg,flowers/images/331.jpg,302,Sophia,001,2020-11-18_20h19.22.728,test1,2020.2.5,MacIntel,60
,,,,z,0.78777,0,302,302,302,1,flowers/images/366.jpg,flowers/images/372.jpg,303,Sophia,001,2020-11-18_20h19.22.728,test1,2020.2.5,MacIntel,60
,,,,z,0.87797,0,303,303,303,1,flowers/images/4.jpg,flowers/images/220.jpg,304,Sophia,001,2020-11-18_20h19.22.728,test1,2020.2.5,MacIntel,60
,,,,m,0.70989,0,304,304,304,1,flowers/images/90.jpg,flowers/images/148.jpg,305,Sophia,001,2020-11-18_20h19.22.728,test1,2020.2.5,MacIntel,60
,,,,m,0.79468,0,305,305,305,1,flowers/images/198.jpg,flowers/images/380.jpg,306,Sophia,001,2020-11-18_20h19.22.728,test1,2020.2.5,MacIntel,60
,,,,m,0.72181,0,306,306,306,1,flowers/images/375.jpg,flowers/images/362.jpg,307,Sophia,001,2020-11-18_20h19.22.728,test1,2020.2.5,MacIntel,60
,,,,z,0.712285,0,307,307,307,1,flowers/images/372.jpg,flowers/images/98.jpg,308,Sophia,001,2020-11-18_20h19.22.728,test1,2020.2.5,MacIntel,60
,,,,m,0.64511,0,308,308,308,1,flowers/images/364.jpg,flowers/images/12.jpg,309,Sophia,001,2020-11-18_20h19.22.728,test1,2020.2.5,MacIntel,60
,,,,m,0.74315,0,309,309,309,1,flowers/images/176.jpg,flowers/images/316.jpg,310,Sophia,001,2020-11-18_20h19.22.728,test1,2020.2.5,MacIntel,60
,,,,z,0.700305,0,310,310,310,1,flowers/images/48.jpg,flowers/images/75.jpg,311,Sophia,001,2020-11-18_20h19.22.728,test1,2020.2.5,MacIntel,60
,,,,z,0.811425,0,311,311,311,1,flowers/images/188.jpg,flowers/images/8.jpg,312,Sophia,001,2020-11-18_20h19.22.728,test1,2020.2.5,MacIntel,60
,,,,z,0.622225,0,312,312,312,1,flowers/images/288.jpg,flowers/images/251.jpg,313,Sophia,001,2020-11-18_20h19.22.728,test1,2020.2.5,MacIntel,60
,,,,m,0.719825,0,313,313,313,1,flowers/images/349.jpg,flowers/images/282.jpg,314,Sophia,001,2020-11-18_20h19.22.728,test1,2020.2.5,MacIntel,60
,,,,z,1.259815,0,314,314,314,1,flowers/images/135.jpg,flowers/images/172.jpg,315,Sophia,001,2020-11-18_20h19.22.728,test1,2020.2.5,MacIntel,60
,,,,z,1.04793,0,315,315,315,1,flowers/images/283.jpg,flowers/images/139.jpg,316,Sophia,001,2020-11-18_20h19.22.728,test1,2020.2.5,MacIntel,60
,,,,z,0.939045,0,316,316,316,1,flowers/images/301.jpg,flowers/images/102.jpg,317,Sophia,001,2020-11-18_20h19.22.728,test1,2020.2.5,MacIntel,60
,,,,m,0.894405,0,317,317,317,1,flowers/images/164.jpg,flowers/images/392.jpg,318,Sophia,001,2020-11-18_20h19.22.728,test1,2020.2.5,MacIntel,60
,,,,m,0.739035,0,318,318,318,1,flowers/images/385.jpg,flowers/images/244.jpg,319,Sophia,001,2020-11-18_20h19.22.728,test1,2020.2.5,MacIntel,60
,,,,m,0.99068,0,319,319,319,1,flowers/images/137.jpg,flowers/images/104.jpg,320,Sophia,001,2020-11-18_20h19.22.728,test1,2020.2.5,MacIntel,60
,,,,m,0.73383,0,320,320,320,1,flowers/images/23.jpg,flowers/images/157.jpg,321,Sophia,001,2020-11-18_20h19.22.728,test1,2020.2.5,MacIntel,60
,,,,m,0.930605,0,321,321,321,1,flowers/images/310.jpg,flowers/images/238.jpg,322,Sophia,001,2020-11-18_20h19.22.728,test1,2020.2.5,MacIntel,60
,,,,m,0.911185,0,322,322,322,1,flowers/images/215.jpg,flowers/images/222.jpg,323,Sophia,001,2020-11-18_20h19.22.728,test1,2020.2.5,MacIntel,60
,,,,m,1.3942,0,323,323,323,1,flowers/images/244.jpg,flowers/images/274.jpg,324,Sophia,001,2020-11-18_20h19.22.728,test1,2020.2.5,MacIntel,60
,,,,z,1.12865,0,324,324,324,1,flowers/images/313.jpg,flowers/images/329.jpg,325,Sophia,001,2020-11-18_20h19.22.728,test1,2020.2.5,MacIntel,60
,,,,m,0.803825,0,325,325,325,1,flowers/images/207.jpg,flowers/images/188.jpg,326,Sophia,001,2020-11-18_20h19.22.728,test1,2020.2.5,MacIntel,60
,,,,m,0.67744,0,326,326,326,1,flowers/images/265.jpg,flowers/images/351.jpg,327,Sophia,001,2020-11-18_20h19.22.728,test1,2020.2.5,MacIntel,60
,,,,z,0.580025,0,327,327,327,1,flowers/images/248.jpg,flowers/images/239.jpg,328,Sophia,001,2020-11-18_20h19.22.728,test1,2020.2.5,MacIntel,60
,,,,z,0.83802,0,328,328,328,1,flowers/images/204.jpg,flowers/images/225.jpg,329,Sophia,001,2020-11-18_20h19.22.728,test1,2020.2.5,MacIntel,60
,,,,z,1.161265,0,329,329,329,1,flowers/images/13.jpg,flowers/images/119.jpg,330,Sophia,001,2020-11-18_20h19.22.728,test1,2020.2.5,MacIntel,60
,,,,m,0.647225,0,330,330,330,1,flowers/images/370.jpg,flowers/images/39.jpg,331,Sophia,001,2020-11-18_20h19.22.728,test1,2020.2.5,MacIntel,60
,,,,z,0.660105,0,331,331,331,1,flowers/images/397.jpg,flowers/images/69.jpg,332,Sophia,001,2020-11-18_20h19.22.728,test1,2020.2.5,MacIntel,60
,,,,m,0.58065,0,332,332,332,1,flowers/images/393.jpg,flowers/images/399.jpg,333,Sophia,001,2020-11-18_20h19.22.728,test1,2020.2.5,MacIntel,60
,,,,z,0.57964,0,333,333,333,1,flowers/images/363.jpg,flowers/images/74.jpg,334,Sophia,001,2020-11-18_20h19.22.728,test1,2020.2.5,MacIntel,60
,,,,m,0.645985,0,334,334,334,1,flowers/images/254.jpg,flowers/images/174.jpg,335,Sophia,001,2020-11-18_20h19.22.728,test1,2020.2.5,MacIntel,60
,,,,z,0.611845,0,335,335,335,1,flowers/images/139.jpg,flowers/images/70.jpg,336,Sophia,001,2020-11-18_20h19.22.728,test1,2020.2.5,MacIntel,60
,,,,m,0.544795,0,336,336,336,1,flowers/images/95.jpg,flowers/images/315.jpg,337,Sophia,001,2020-11-18_20h19.22.728,test1,2020.2.5,MacIntel,60
,,,,m,0.49562,0,337,337,337,1,flowers/images/294.jpg,flowers/images/334.jpg,338,Sophia,001,2020-11-18_20h19.22.728,test1,2020.2.5,MacIntel,60
,,,,z,0.732025,0,338,338,338,1,flowers/images/174.jpg,flowers/images/171.jpg,339,Sophia,001,2020-11-18_20h19.22.728,test1,2020.2.5,MacIntel,60
,,,,m,0.54189,0,339,339,339,1,flowers/images/57.jpg,flowers/images/326.jpg,340,Sophia,001,2020-11-18_20h19.22.728,test1,2020.2.5,MacIntel,60
,,,,z,0.49457,0,340,340,340,1,flowers/images/246.jpg,flowers/images/82.jpg,341,Sophia,001,2020-11-18_20h19.22.728,test1,2020.2.5,MacIntel,60
,,,,m,0.55507,0,341,341,341,1,flowers/images/16.jpg,flowers/images/45.jpg,342,Sophia,001,2020-11-18_20h19.22.728,test1,2020.2.5,MacIntel,60
,,,,z,0.56181,0,342,342,342,1,flowers/images/380.jpg,flowers/images/150.jpg,343,Sophia,001,2020-11-18_20h19.22.728,test1,2020.2.5,MacIntel,60
,,,,m,0.528635,0,343,343,343,1,flowers/images/109.jpg,flowers/images/350.jpg,344,Sophia,001,2020-11-18_20h19.22.728,test1,2020.2.5,MacIntel,60
,,,,z,0.5777,0,344,344,344,1,flowers/images/223.jpg,flowers/images/366.jpg,345,Sophia,001,2020-11-18_20h19.22.728,test1,2020.2.5,MacIntel,60
,,,,m,0.428605,0,345,345,345,1,flowers/images/60.jpg,flowers/images/194.jpg,346,Sophia,001,2020-11-18_20h19.22.728,test1,2020.2.5,MacIntel,60
,,,,z,0.59573,0,346,346,346,1,flowers/images/268.jpg,flowers/images/332.jpg,347,Sophia,001,2020-11-18_20h19.22.728,test1,2020.2.5,MacIntel,60
,,,,m,0.60598,0,347,347,347,1,flowers/images/388.jpg,flowers/images/319.jpg,348,Sophia,001,2020-11-18_20h19.22.728,test1,2020.2.5,MacIntel,60
,,,,m,0.575755,0,348,348,348,1,flowers/images/356.jpg,flowers/images/337.jpg,349,Sophia,001,2020-11-18_20h19.22.728,test1,2020.2.5,MacIntel,60
,,,,m,1.033425,0,349,349,349,1,flowers/images/384.jpg,flowers/images/344.jpg,350,Sophia,001,2020-11-18_20h19.22.728,test1,2020.2.5,MacIntel,60
,,,,m,0.62343,0,350,350,350,1,flowers/images/333.jpg,flowers/images/346.jpg,351,Sophia,001,2020-11-18_20h19.22.728,test1,2020.2.5,MacIntel,60
,,,,m,0.910175,0,351,351,351,1,flowers/images/24.jpg,flowers/images/116.jpg,352,Sophia,001,2020-11-18_20h19.22.728,test1,2020.2.5,MacIntel,60
,,,,z,0.76347,0,352,352,352,1,flowers/images/220.jpg,flowers/images/235.jpg,353,Sophia,001,2020-11-18_20h19.22.728,test1,2020.2.5,MacIntel,60
,,,,m,0.561535,0,353,353,353,1,flowers/images/269.jpg,flowers/images/198.jpg,354,Sophia,001,2020-11-18_20h19.22.728,test1,2020.2.5,MacIntel,60
,,,,m,0.628805,0,354,354,354,1,flowers/images/107.jpg,flowers/images/1.jpg,355,Sophia,001,2020-11-18_20h19.22.728,test1,2020.2.5,MacIntel,60
,,,,m,0.52887,0,355,355,355,1,flowers/images/314.jpg,flowers/images/147.jpg,356,Sophia,001,2020-11-18_20h19.22.728,test1,2020.2.5,MacIntel,60
,,,,m,0.78172,0,356,356,356,1,flowers/images/117.jpg,flowers/images/258.jpg,357,Sophia,001,2020-11-18_20h19.22.728,test1,2020.2.5,MacIntel,60
,,,,m,0.87802,0,357,357,357,1,flowers/images/41.jpg,flowers/images/214.jpg,358,Sophia,001,2020-11-18_20h19.22.728,test1,2020.2.5,MacIntel,60
,,,,z,1.099745,0,358,358,358,1,flowers/images/306.jpg,flowers/images/118.jpg,359,Sophia,001,2020-11-18_20h19.22.728,test1,2020.2.5,MacIntel,60
,,,,m,0.68844,0,359,359,359,1,flowers/images/299.jpg,flowers/images/40.jpg,360,Sophia,001,2020-11-18_20h19.22.728,test1,2020.2.5,MacIntel,60
,,,,m,0.655175,0,360,360,360,1,flowers/images/50.jpg,flowers/images/291.jpg,361,Sophia,001,2020-11-18_20h19.22.728,test1,2020.2.5,MacIntel,60
,,,,z,0.58866,0,361,361,361,1,flowers/images/238.jpg,flowers/images/129.jpg,362,Sophia,001,2020-11-18_20h19.22.728,test1,2020.2.5,MacIntel,60
,,,,m,1.25963,0,362,362,362,1,flowers/images/30.jpg,flowers/images/136.jpg,363,Sophia,001,2020-11-18_20h19.22.728,test1,2020.2.5,MacIntel,60
,,,,m,0.684185,0,363,363,363,1,flowers/images/211.jpg,flowers/images/306.jpg,364,Sophia,001,2020-11-18_20h19.22.728,test1,2020.2.5,MacIntel,60
,,,,z,0.745715,0,364,364,364,1,flowers/images/227.jpg,flowers/images/57.jpg,365,Sophia,001,2020-11-18_20h19.22.728,test1,2020.2.5,MacIntel,60
,,,,z,0.72185,0,365,365,365,1,flowers/images/242.jpg,flowers/images/61.jpg,366,Sophia,001,2020-11-18_20h19.22.728,test1,2020.2.5,MacIntel,60
,,,,z,0.744275,0,366,366,366,1,flowers/images/387.jpg,flowers/images/263.jpg,367,Sophia,001,2020-11-18_20h19.22.728,test1,2020.2.5,MacIntel,60
,,,,z,1.029605,0,367,367,367,1,flowers/images/193.jpg,flowers/images/367.jpg,368,Sophia,001,2020-11-18_20h19.22.728,test1,2020.2.5,MacIntel,60
,,,,m,0.820695,0,368,368,368,1,flowers/images/231.jpg,flowers/images/18.jpg,369,Sophia,001,2020-11-18_20h19.22.728,test1,2020.2.5,MacIntel,60
,,,,z,0.794195,0,369,369,369,1,flowers/images/154.jpg,flowers/images/32.jpg,370,Sophia,001,2020-11-18_20h19.22.728,test1,2020.2.5,MacIntel,60
,,,,m,0.70514,0,370,370,370,1,flowers/images/79.jpg,flowers/images/301.jpg,371,Sophia,001,2020-11-18_20h19.22.728,test1,2020.2.5,MacIntel,60
,,,,z,1.26086,0,371,371,371,1,flowers/images/263.jpg,flowers/images/210.jpg,372,Sophia,001,2020-11-18_20h19.22.728,test1,2020.2.5,MacIntel,60
,,,,m,0.797055,0,372,372,372,1,flowers/images/383.jpg,flowers/images/354.jpg,373,Sophia,001,2020-11-18_20h19.22.728,test1,2020.2.5,MacIntel,60
,,,,z,0.661975,0,373,373,373,1,flowers/images/290.jpg,flowers/images/212.jpg,374,Sophia,001,2020-11-18_20h19.22.728,test1,2020.2.5,MacIntel,60
,,,,m,0.661185,0,374,374,374,1,flowers/images/206.jpg,flowers/images/397.jpg,375,Sophia,001,2020-11-18_20h19.22.728,test1,2020.2.5,MacIntel,60
,,,,z,0.94122,0,375,375,375,1,flowers/images/317.jpg,flowers/images/297.jpg,376,Sophia,001,2020-11-18_20h19.22.728,test1,2020.2.5,MacIntel,60
,,,,m,0.655625,0,376,376,376,1,flowers/images/329.jpg,flowers/images/255.jpg,377,Sophia,001,2020-11-18_20h19.22.728,test1,2020.2.5,MacIntel,60
,,,,z,0.99544,0,377,377,377,1,flowers/images/225.jpg,flowers/images/91.jpg,378,Sophia,001,2020-11-18_20h19.22.728,test1,2020.2.5,MacIntel,60
,,,,z,0.82127,0,378,378,378,1,flowers/images/11.jpg,flowers/images/256.jpg,379,Sophia,001,2020-11-18_20h19.22.728,test1,2020.2.5,MacIntel,60
,,,,z,0.89358,0,379,379,379,1,flowers/images/234.jpg,flowers/images/64.jpg,380,Sophia,001,2020-11-18_20h19.22.728,test1,2020.2.5,MacIntel,60
,,,,m,1.127115,0,380,380,380,1,flowers/images/342.jpg,flowers/images/26.jpg,381,Sophia,001,2020-11-18_20h19.22.728,test1,2020.2.5,MacIntel,60
,,,,m,4.152485,0,381,381,381,1,flowers/images/391.jpg,flowers/images/286.jpg,382,Sophia,001,2020-11-18_20h19.22.728,test1,2020.2.5,MacIntel,60
,,,,m,1.27507,0,382,382,382,1,flowers/images/221.jpg,flowers/images/268.jpg,383,Sophia,001,2020-11-18_20h19.22.728,test1,2020.2.5,MacIntel,60
,,,,m,1.61277,0,383,383,383,1,flowers/images/210.jpg,flowers/images/84.jpg,384,Sophia,001,2020-11-18_20h19.22.728,test1,2020.2.5,MacIntel,60
,,,,m,1.738765,0,384,384,384,1,flowers/images/138.jpg,flowers/images/77.jpg,385,Sophia,001,2020-11-18_20h19.22.728,test1,2020.2.5,MacIntel,60
,,,,m,1.12115,0,385,385,385,1,flowers/images/315.jpg,flowers/images/269.jpg,386,Sophia,001,2020-11-18_20h19.22.728,test1,2020.2.5,MacIntel,60
,,,,m,1.3865,0,386,386,386,1,flowers/images/308.jpg,flowers/images/265.jpg,387,Sophia,001,2020-11-18_20h19.22.728,test1,2020.2.5,MacIntel,60
,,,,z,3.3545,0,387,387,387,1,flowers/images/88.jpg,flowers/images/56.jpg,388,Sophia,001,2020-11-18_20h19.22.728,test1,2020.2.5,MacIntel,60
,,,,z,1.053515,0,388,388,388,1,flowers/images/102.jpg,flowers/images/126.jpg,389,Sophia,001,2020-11-18_20h19.22.728,test1,2020.2.5,MacIntel,60
,,,,m,0.878115,0,389,389,389,1,flowers/images/132.jpg,flowers/images/389.jpg,390,Sophia,001,2020-11-18_20h19.22.728,test1,2020.2.5,MacIntel,60
,,,,m,0.944135,0,390,390,390,1,flowers/images/186.jpg,flowers/images/144.jpg,391,Sophia,001,2020-11-18_20h19.22.728,test1,2020.2.5,MacIntel,60
,,,,z,1.64653,0,391,391,391,1,flowers/images/284.jpg,flowers/images/92.jpg,392,Sophia,001,2020-11-18_20h19.22.728,test1,2020.2.5,MacIntel,60
,,,,z,0.86101,0,392,392,392,1,flowers/images/396.jpg,flowers/images/24.jpg,393,Sophia,001,2020-11-18_20h19.22.728,test1,2020.2.5,MacIntel,60
,,,,z,1.4118,0,393,393,393,1,flowers/images/374.jpg,flowers/images/287.jpg,394,Sophia,001,2020-11-18_20h19.22.728,test1,2020.2.5,MacIntel,60
,,,,m,0.954325,0,394,394,394,1,flowers/images/140.jpg,flowers/images/267.jpg,395,Sophia,001,2020-11-18_20h19.22.728,test1,2020.2.5,MacIntel,60
,,,,z,1.777745,0,395,395,395,1,flowers/images/267.jpg,flowers/images/343.jpg,396,Sophia,001,2020-11-18_20h19.22.728,test1,2020.2.5,MacIntel,60
,,,,m,1.089105,0,396,396,396,1,flowers/images/286.jpg,flowers/images/35.jpg,397,Sophia,001,2020-11-18_20h19.22.728,test1,2020.2.5,MacIntel,60
,,,,z,0.788595,0,397,397,397,1,flowers/images/143.jpg,flowers/images/391.jpg,398,Sophia,001,2020-11-18_20h19.22.728,test1,2020.2.5,MacIntel,60
,,,,m,0.81042,0,398,398,398,1,flowers/images/196.jpg,flowers/images/155.jpg,399,Sophia,001,2020-11-18_20h19.22.728,test1,2020.2.5,MacIntel,60
,,,,m,0.99298,0,399,399,399,1,flowers/images/281.jpg,flowers/images/394.jpg,400,Sophia,001,2020-11-18_20h19.22.728,test1,2020.2.5,MacIntel,60
