key_resp.keys,key_resp.rt,key_resp_3.keys,key_resp_3.rt,key_resp_2.keys,key_resp_2.rt,trials.thisRepN,trials.thisTrialN,trials.thisN,trials.thisIndex,trials.ran,image_left,image_right,trial_num,participant,session,date,expName,psychopyVersion,OS,frameRate
space,11.307,space,11.274,m,10.844,0,0,0,0,1,flowers/images/125.jpg,flowers/images/165.jpg,1,Yang,001,2020-11-19_13h19.13.650,test1,2020.2.5,MacIntel,60
,,,,z,5.022,0,1,1,1,1,flowers/images/168.jpg,flowers/images/195.jpg,2,Yang,001,2020-11-19_13h19.13.650,test1,2020.2.5,MacIntel,60
,,,,m,2.553,0,2,2,2,1,flowers/images/114.jpg,flowers/images/131.jpg,3,Yang,001,2020-11-19_13h19.13.650,test1,2020.2.5,MacIntel,60
,,,,z,1.618,0,3,3,3,1,flowers/images/110.jpg,flowers/images/241.jpg,4,Yang,001,2020-11-19_13h19.13.650,test1,2020.2.5,MacIntel,60
,,,,z,1.878,0,4,4,4,1,flowers/images/157.jpg,flowers/images/170.jpg,5,Yang,001,2020-11-19_13h19.13.650,test1,2020.2.5,MacIntel,60
,,,,m,1.767,0,5,5,5,1,flowers/images/291.jpg,flowers/images/302.jpg,6,Yang,001,2020-11-19_13h19.13.650,test1,2020.2.5,MacIntel,60
,,,,z,1.552,0,6,6,6,1,flowers/images/335.jpg,flowers/images/272.jpg,7,Yang,001,2020-11-19_13h19.13.650,test1,2020.2.5,MacIntel,60
,,,,m,1.424,0,7,7,7,1,flowers/images/122.jpg,flowers/images/72.jpg,8,Yang,001,2020-11-19_13h19.13.650,test1,2020.2.5,MacIntel,60
,,,,m,1.634,0,8,8,8,1,flowers/images/240.jpg,flowers/images/67.jpg,9,Yang,001,2020-11-19_13h19.13.650,test1,2020.2.5,MacIntel,60
,,,,z,1.985,0,9,9,9,1,flowers/images/324.jpg,flowers/images/180.jpg,10,Yang,001,2020-11-19_13h19.13.650,test1,2020.2.5,MacIntel,60
,,,,m,3.24,0,10,10,10,1,flowers/images/148.jpg,flowers/images/275.jpg,11,Yang,001,2020-11-19_13h19.13.650,test1,2020.2.5,MacIntel,60
,,,,z,2.172,0,11,11,11,1,flowers/images/61.jpg,flowers/images/2.jpg,12,Yang,001,2020-11-19_13h19.13.650,test1,2020.2.5,MacIntel,60
,,,,m,3.082,0,12,12,12,1,flowers/images/20.jpg,flowers/images/378.jpg,13,Yang,001,2020-11-19_13h19.13.650,test1,2020.2.5,MacIntel,60
,,,,z,1.357,0,13,13,13,1,flowers/images/181.jpg,flowers/images/363.jpg,14,Yang,001,2020-11-19_13h19.13.650,test1,2020.2.5,MacIntel,60
,,,,m,3.334,0,14,14,14,1,flowers/images/87.jpg,flowers/images/187.jpg,15,Yang,001,2020-11-19_13h19.13.650,test1,2020.2.5,MacIntel,60
,,,,m,1.936,0,15,15,15,1,flowers/images/150.jpg,flowers/images/281.jpg,16,Yang,001,2020-11-19_13h19.13.650,test1,2020.2.5,MacIntel,60
,,,,z,1.717,0,16,16,16,1,flowers/images/112.jpg,flowers/images/176.jpg,17,Yang,001,2020-11-19_13h19.13.650,test1,2020.2.5,MacIntel,60
,,,,m,2.623,0,17,17,17,1,flowers/images/236.jpg,flowers/images/243.jpg,18,Yang,001,2020-11-19_13h19.13.650,test1,2020.2.5,MacIntel,60
,,,,m,2.037,0,18,18,18,1,flowers/images/133.jpg,flowers/images/247.jpg,19,Yang,001,2020-11-19_13h19.13.650,test1,2020.2.5,MacIntel,60
,,,,m,1.636,0,19,19,19,1,flowers/images/136.jpg,flowers/images/164.jpg,20,Yang,001,2020-11-19_13h19.13.650,test1,2020.2.5,MacIntel,60
,,,,z,1.301,0,20,20,20,1,flowers/images/185.jpg,flowers/images/211.jpg,21,Yang,001,2020-11-19_13h19.13.650,test1,2020.2.5,MacIntel,60
,,,,m,1.085,0,21,21,21,1,flowers/images/118.jpg,flowers/images/371.jpg,22,Yang,001,2020-11-19_13h19.13.650,test1,2020.2.5,MacIntel,60
,,,,m,1.995,0,22,22,22,1,flowers/images/177.jpg,flowers/images/5.jpg,23,Yang,001,2020-11-19_13h19.13.650,test1,2020.2.5,MacIntel,60
,,,,m,1.424,0,23,23,23,1,flowers/images/91.jpg,flowers/images/215.jpg,24,Yang,001,2020-11-19_13h19.13.650,test1,2020.2.5,MacIntel,60
,,,,m,3.403,0,24,24,24,1,flowers/images/277.jpg,flowers/images/11.jpg,25,Yang,001,2020-11-19_13h19.13.650,test1,2020.2.5,MacIntel,60
,,,,m,1.519,0,25,25,25,1,flowers/images/197.jpg,flowers/images/25.jpg,26,Yang,001,2020-11-19_13h19.13.650,test1,2020.2.5,MacIntel,60
,,,,m,3.495,0,26,26,26,1,flowers/images/131.jpg,flowers/images/63.jpg,27,Yang,001,2020-11-19_13h19.13.650,test1,2020.2.5,MacIntel,60
,,,,m,4.917,0,27,27,27,1,flowers/images/106.jpg,flowers/images/221.jpg,28,Yang,001,2020-11-19_13h19.13.650,test1,2020.2.5,MacIntel,60
,,,,m,1.185,0,28,28,28,1,flowers/images/295.jpg,flowers/images/307.jpg,29,Yang,001,2020-11-19_13h19.13.650,test1,2020.2.5,MacIntel,60
,,,,z,1.404,0,29,29,29,1,flowers/images/368.jpg,flowers/images/384.jpg,30,Yang,001,2020-11-19_13h19.13.650,test1,2020.2.5,MacIntel,60
,,,,m,2.466,0,30,30,30,1,flowers/images/96.jpg,flowers/images/140.jpg,31,Yang,001,2020-11-19_13h19.13.650,test1,2020.2.5,MacIntel,60
,,,,z,2.82,0,31,31,31,1,flowers/images/272.jpg,flowers/images/59.jpg,32,Yang,001,2020-11-19_13h19.13.650,test1,2020.2.5,MacIntel,60
,,,,m,2.938,0,32,32,32,1,flowers/images/389.jpg,flowers/images/110.jpg,33,Yang,001,2020-11-19_13h19.13.650,test1,2020.2.5,MacIntel,60
,,,,m,1.021,0,33,33,33,1,flowers/images/237.jpg,flowers/images/387.jpg,34,Yang,001,2020-11-19_13h19.13.650,test1,2020.2.5,MacIntel,60
,,,,z,1.669,0,34,34,34,1,flowers/images/35.jpg,flowers/images/142.jpg,35,Yang,001,2020-11-19_13h19.13.650,test1,2020.2.5,MacIntel,60
,,,,m,1.874,0,35,35,35,1,flowers/images/49.jpg,flowers/images/200.jpg,36,Yang,001,2020-11-19_13h19.13.650,test1,2020.2.5,MacIntel,60
,,,,m,1.851,0,36,36,36,1,flowers/images/142.jpg,flowers/images/328.jpg,37,Yang,001,2020-11-19_13h19.13.650,test1,2020.2.5,MacIntel,60
,,,,m,1.92,0,37,37,37,1,flowers/images/339.jpg,flowers/images/264.jpg,38,Yang,001,2020-11-19_13h19.13.650,test1,2020.2.5,MacIntel,60
,,,,m,1.168,0,38,38,38,1,flowers/images/394.jpg,flowers/images/266.jpg,39,Yang,001,2020-11-19_13h19.13.650,test1,2020.2.5,MacIntel,60
,,,,m,1.067,0,39,39,39,1,flowers/images/89.jpg,flowers/images/298.jpg,40,Yang,001,2020-11-19_13h19.13.650,test1,2020.2.5,MacIntel,60
,,,,z,1.251,0,40,40,40,1,flowers/images/325.jpg,flowers/images/47.jpg,41,Yang,001,2020-11-19_13h19.13.650,test1,2020.2.5,MacIntel,60
,,,,z,1.667,0,41,41,41,1,flowers/images/40.jpg,flowers/images/162.jpg,42,Yang,001,2020-11-19_13h19.13.650,test1,2020.2.5,MacIntel,60
,,,,z,1.409,0,42,42,42,1,flowers/images/266.jpg,flowers/images/181.jpg,43,Yang,001,2020-11-19_13h19.13.650,test1,2020.2.5,MacIntel,60
,,,,m,3.967,0,43,43,43,1,flowers/images/100.jpg,flowers/images/396.jpg,44,Yang,001,2020-11-19_13h19.13.650,test1,2020.2.5,MacIntel,60
,,,,m,1.499,0,44,44,44,1,flowers/images/144.jpg,flowers/images/231.jpg,45,Yang,001,2020-11-19_13h19.13.650,test1,2020.2.5,MacIntel,60
,,,,z,1.121,0,45,45,45,1,flowers/images/289.jpg,flowers/images/202.jpg,46,Yang,001,2020-11-19_13h19.13.650,test1,2020.2.5,MacIntel,60
,,,,m,1.168,0,46,46,46,1,flowers/images/178.jpg,flowers/images/86.jpg,47,Yang,001,2020-11-19_13h19.13.650,test1,2020.2.5,MacIntel,60
,,,,z,1.892,0,47,47,47,1,flowers/images/360.jpg,flowers/images/393.jpg,48,Yang,001,2020-11-19_13h19.13.650,test1,2020.2.5,MacIntel,60
,,,,m,1.388,0,48,48,48,1,flowers/images/108.jpg,flowers/images/288.jpg,49,Yang,001,2020-11-19_13h19.13.650,test1,2020.2.5,MacIntel,60
,,,,m,1.307,0,49,49,49,1,flowers/images/165.jpg,flowers/images/154.jpg,50,Yang,001,2020-11-19_13h19.13.650,test1,2020.2.5,MacIntel,60
,,,,m,3.008,0,50,50,50,1,flowers/images/27.jpg,flowers/images/121.jpg,51,Yang,001,2020-11-19_13h19.13.650,test1,2020.2.5,MacIntel,60
,,,,z,1.019,0,51,51,51,1,flowers/images/302.jpg,flowers/images/203.jpg,52,Yang,001,2020-11-19_13h19.13.650,test1,2020.2.5,MacIntel,60
,,,,z,2.901,0,52,52,52,1,flowers/images/255.jpg,flowers/images/42.jpg,53,Yang,001,2020-11-19_13h19.13.650,test1,2020.2.5,MacIntel,60
,,,,m,1.477,0,53,53,53,1,flowers/images/31.jpg,flowers/images/289.jpg,54,Yang,001,2020-11-19_13h19.13.650,test1,2020.2.5,MacIntel,60
,,,,m,1.485,0,54,54,54,1,flowers/images/66.jpg,flowers/images/246.jpg,55,Yang,001,2020-11-19_13h19.13.650,test1,2020.2.5,MacIntel,60
,,,,z,1.006,0,55,55,55,1,flowers/images/355.jpg,flowers/images/115.jpg,56,Yang,001,2020-11-19_13h19.13.650,test1,2020.2.5,MacIntel,60
,,,,m,1.857,0,56,56,56,1,flowers/images/241.jpg,flowers/images/345.jpg,57,Yang,001,2020-11-19_13h19.13.650,test1,2020.2.5,MacIntel,60
,,,,m,3.089,0,57,57,57,1,flowers/images/296.jpg,flowers/images/37.jpg,58,Yang,001,2020-11-19_13h19.13.650,test1,2020.2.5,MacIntel,60
,,,,z,1.4,0,58,58,58,1,flowers/images/235.jpg,flowers/images/373.jpg,59,Yang,001,2020-11-19_13h19.13.650,test1,2020.2.5,MacIntel,60
,,,,z,1.374,0,59,59,59,1,flowers/images/173.jpg,flowers/images/93.jpg,60,Yang,001,2020-11-19_13h19.13.650,test1,2020.2.5,MacIntel,60
,,,,m,1.303,0,60,60,60,1,flowers/images/331.jpg,flowers/images/88.jpg,61,Yang,001,2020-11-19_13h19.13.650,test1,2020.2.5,MacIntel,60
,,,,m,4.205,0,61,61,61,1,flowers/images/134.jpg,flowers/images/127.jpg,62,Yang,001,2020-11-19_13h19.13.650,test1,2020.2.5,MacIntel,60
,,,,z,2.841,0,62,62,62,1,flowers/images/285.jpg,flowers/images/201.jpg,63,Yang,001,2020-11-19_13h19.13.650,test1,2020.2.5,MacIntel,60
,,,,z,1.784,0,63,63,63,1,flowers/images/151.jpg,flowers/images/52.jpg,64,Yang,001,2020-11-19_13h19.13.650,test1,2020.2.5,MacIntel,60
,,,,z,1.133,0,64,64,64,1,flowers/images/208.jpg,flowers/images/186.jpg,65,Yang,001,2020-11-19_13h19.13.650,test1,2020.2.5,MacIntel,60
,,,,z,1.135,0,65,65,65,1,flowers/images/80.jpg,flowers/images/124.jpg,66,Yang,001,2020-11-19_13h19.13.650,test1,2020.2.5,MacIntel,60
,,,,m,1.273,0,66,66,66,1,flowers/images/303.jpg,flowers/images/347.jpg,67,Yang,001,2020-11-19_13h19.13.650,test1,2020.2.5,MacIntel,60
,,,,m,0.988,0,67,67,67,1,flowers/images/6.jpg,flowers/images/262.jpg,68,Yang,001,2020-11-19_13h19.13.650,test1,2020.2.5,MacIntel,60
,,,,z,2.185,0,68,68,68,1,flowers/images/85.jpg,flowers/images/20.jpg,69,Yang,001,2020-11-19_13h19.13.650,test1,2020.2.5,MacIntel,60
,,,,z,0.989,0,69,69,69,1,flowers/images/392.jpg,flowers/images/15.jpg,70,Yang,001,2020-11-19_13h19.13.650,test1,2020.2.5,MacIntel,60
,,,,m,1.053,0,70,70,70,1,flowers/images/341.jpg,flowers/images/357.jpg,71,Yang,001,2020-11-19_13h19.13.650,test1,2020.2.5,MacIntel,60
,,,,m,1.451,0,71,71,71,1,flowers/images/293.jpg,flowers/images/158.jpg,72,Yang,001,2020-11-19_13h19.13.650,test1,2020.2.5,MacIntel,60
,,,,z,3.875,0,72,72,72,1,flowers/images/390.jpg,flowers/images/58.jpg,73,Yang,001,2020-11-19_13h19.13.650,test1,2020.2.5,MacIntel,60
,,,,m,0.766,0,73,73,73,1,flowers/images/82.jpg,flowers/images/16.jpg,74,Yang,001,2020-11-19_13h19.13.650,test1,2020.2.5,MacIntel,60
,,,,m,2.188,0,74,74,74,1,flowers/images/336.jpg,flowers/images/130.jpg,75,Yang,001,2020-11-19_13h19.13.650,test1,2020.2.5,MacIntel,60
,,,,m,0.939,0,75,75,75,1,flowers/images/160.jpg,flowers/images/105.jpg,76,Yang,001,2020-11-19_13h19.13.650,test1,2020.2.5,MacIntel,60
,,,,z,2.158,0,76,76,76,1,flowers/images/328.jpg,flowers/images/305.jpg,77,Yang,001,2020-11-19_13h19.13.650,test1,2020.2.5,MacIntel,60
,,,,m,1.623,0,77,77,77,1,flowers/images/180.jpg,flowers/images/249.jpg,78,Yang,001,2020-11-19_13h19.13.650,test1,2020.2.5,MacIntel,60
,,,,m,1.214,0,78,78,78,1,flowers/images/169.jpg,flowers/images/94.jpg,79,Yang,001,2020-11-19_13h19.13.650,test1,2020.2.5,MacIntel,60
,,,,z,1.171,0,79,79,79,1,flowers/images/145.jpg,flowers/images/277.jpg,80,Yang,001,2020-11-19_13h19.13.650,test1,2020.2.5,MacIntel,60
,,,,z,1.283,0,80,80,80,1,flowers/images/358.jpg,flowers/images/197.jpg,81,Yang,001,2020-11-19_13h19.13.650,test1,2020.2.5,MacIntel,60
,,,,m,2.925,0,81,81,81,1,flowers/images/71.jpg,flowers/images/128.jpg,82,Yang,001,2020-11-19_13h19.13.650,test1,2020.2.5,MacIntel,60
,,,,m,1.023,0,82,82,82,1,flowers/images/192.jpg,flowers/images/379.jpg,83,Yang,001,2020-11-19_13h19.13.650,test1,2020.2.5,MacIntel,60
,,,,z,1.705,0,83,83,83,1,flowers/images/189.jpg,flowers/images/271.jpg,84,Yang,001,2020-11-19_13h19.13.650,test1,2020.2.5,MacIntel,60
,,,,m,1.625,0,84,84,84,1,flowers/images/15.jpg,flowers/images/28.jpg,85,Yang,001,2020-11-19_13h19.13.650,test1,2020.2.5,MacIntel,60
,,,,m,1.338,0,85,85,85,1,flowers/images/171.jpg,flowers/images/97.jpg,86,Yang,001,2020-11-19_13h19.13.650,test1,2020.2.5,MacIntel,60
,,,,z,2.751,0,86,86,86,1,flowers/images/287.jpg,flowers/images/29.jpg,87,Yang,001,2020-11-19_13h19.13.650,test1,2020.2.5,MacIntel,60
,,,,z,1.189,0,87,87,87,1,flowers/images/381.jpg,flowers/images/356.jpg,88,Yang,001,2020-11-19_13h19.13.650,test1,2020.2.5,MacIntel,60
,,,,m,1.206,0,88,88,88,1,flowers/images/76.jpg,flowers/images/10.jpg,89,Yang,001,2020-11-19_13h19.13.650,test1,2020.2.5,MacIntel,60
,,,,z,1.318,0,89,89,89,1,flowers/images/239.jpg,flowers/images/226.jpg,90,Yang,001,2020-11-19_13h19.13.650,test1,2020.2.5,MacIntel,60
,,,,z,2.202,0,90,90,90,1,flowers/images/398.jpg,flowers/images/368.jpg,91,Yang,001,2020-11-19_13h19.13.650,test1,2020.2.5,MacIntel,60
,,,,m,1.687,0,91,91,91,1,flowers/images/21.jpg,flowers/images/53.jpg,92,Yang,001,2020-11-19_13h19.13.650,test1,2020.2.5,MacIntel,60
,,,,z,1.139,0,92,92,92,1,flowers/images/352.jpg,flowers/images/230.jpg,93,Yang,001,2020-11-19_13h19.13.650,test1,2020.2.5,MacIntel,60
,,,,z,1.74,0,93,93,93,1,flowers/images/54.jpg,flowers/images/280.jpg,94,Yang,001,2020-11-19_13h19.13.650,test1,2020.2.5,MacIntel,60
,,,,z,1.753,0,94,94,94,1,flowers/images/259.jpg,flowers/images/184.jpg,95,Yang,001,2020-11-19_13h19.13.650,test1,2020.2.5,MacIntel,60
,,,,z,1.448,0,95,95,95,1,flowers/images/7.jpg,flowers/images/137.jpg,96,Yang,001,2020-11-19_13h19.13.650,test1,2020.2.5,MacIntel,60
,,,,m,1.058,0,96,96,96,1,flowers/images/292.jpg,flowers/images/364.jpg,97,Yang,001,2020-11-19_13h19.13.650,test1,2020.2.5,MacIntel,60
,,,,z,2.688,0,97,97,97,1,flowers/images/84.jpg,flowers/images/245.jpg,98,Yang,001,2020-11-19_13h19.13.650,test1,2020.2.5,MacIntel,60
,,,,m,1.656,0,98,98,98,1,flowers/images/141.jpg,flowers/images/183.jpg,99,Yang,001,2020-11-19_13h19.13.650,test1,2020.2.5,MacIntel,60
,,,,z,2.087,0,99,99,99,1,flowers/images/45.jpg,flowers/images/375.jpg,100,Yang,001,2020-11-19_13h19.13.650,test1,2020.2.5,MacIntel,60
,,,,m,2.087,0,100,100,100,1,flowers/images/111.jpg,flowers/images/395.jpg,101,Yang,001,2020-11-19_13h19.13.650,test1,2020.2.5,MacIntel,60
,,,,m,0.892,0,101,101,101,1,flowers/images/46.jpg,flowers/images/360.jpg,102,Yang,001,2020-11-19_13h19.13.650,test1,2020.2.5,MacIntel,60
,,,,m,1.353,0,102,102,102,1,flowers/images/399.jpg,flowers/images/4.jpg,103,Yang,001,2020-11-19_13h19.13.650,test1,2020.2.5,MacIntel,60
,,,,z,2.35,0,103,103,103,1,flowers/images/250.jpg,flowers/images/113.jpg,104,Yang,001,2020-11-19_13h19.13.650,test1,2020.2.5,MacIntel,60
,,,,z,1.708,0,104,104,104,1,flowers/images/359.jpg,flowers/images/283.jpg,105,Yang,001,2020-11-19_13h19.13.650,test1,2020.2.5,MacIntel,60
,,,,m,2.05,0,105,105,105,1,flowers/images/209.jpg,flowers/images/309.jpg,106,Yang,001,2020-11-19_13h19.13.650,test1,2020.2.5,MacIntel,60
,,,,m,3.208,0,106,106,106,1,flowers/images/219.jpg,flowers/images/285.jpg,107,Yang,001,2020-11-19_13h19.13.650,test1,2020.2.5,MacIntel,60
,,,,m,2.249,0,107,107,107,1,flowers/images/159.jpg,flowers/images/377.jpg,108,Yang,001,2020-11-19_13h19.13.650,test1,2020.2.5,MacIntel,60
,,,,m,1.269,0,108,108,108,1,flowers/images/17.jpg,flowers/images/365.jpg,109,Yang,001,2020-11-19_13h19.13.650,test1,2020.2.5,MacIntel,60
,,,,m,1.251,0,109,109,109,1,flowers/images/247.jpg,flowers/images/14.jpg,110,Yang,001,2020-11-19_13h19.13.650,test1,2020.2.5,MacIntel,60
,,,,z,1.522,0,110,110,110,1,flowers/images/357.jpg,flowers/images/229.jpg,111,Yang,001,2020-11-19_13h19.13.650,test1,2020.2.5,MacIntel,60
,,,,m,1.087,0,111,111,111,1,flowers/images/378.jpg,flowers/images/299.jpg,112,Yang,001,2020-11-19_13h19.13.650,test1,2020.2.5,MacIntel,60
,,,,z,1.005,0,112,112,112,1,flowers/images/191.jpg,flowers/images/304.jpg,113,Yang,001,2020-11-19_13h19.13.650,test1,2020.2.5,MacIntel,60
,,,,m,1.039,0,113,113,113,1,flowers/images/195.jpg,flowers/images/44.jpg,114,Yang,001,2020-11-19_13h19.13.650,test1,2020.2.5,MacIntel,60
,,,,m,2.551,0,114,114,114,1,flowers/images/126.jpg,flowers/images/161.jpg,115,Yang,001,2020-11-19_13h19.13.650,test1,2020.2.5,MacIntel,60
,,,,z,1.634,0,115,115,115,1,flowers/images/340.jpg,flowers/images/178.jpg,116,Yang,001,2020-11-19_13h19.13.650,test1,2020.2.5,MacIntel,60
,,,,m,1.022,0,116,116,116,1,flowers/images/201.jpg,flowers/images/21.jpg,117,Yang,001,2020-11-19_13h19.13.650,test1,2020.2.5,MacIntel,60
,,,,z,1.131,0,117,117,117,1,flowers/images/307.jpg,flowers/images/122.jpg,118,Yang,001,2020-11-19_13h19.13.650,test1,2020.2.5,MacIntel,60
,,,,z,1.381,0,118,118,118,1,flowers/images/194.jpg,flowers/images/23.jpg,119,Yang,001,2020-11-19_13h19.13.650,test1,2020.2.5,MacIntel,60
,,,,z,1.72,0,119,119,119,1,flowers/images/318.jpg,flowers/images/293.jpg,120,Yang,001,2020-11-19_13h19.13.650,test1,2020.2.5,MacIntel,60
,,,,z,1.001,0,120,120,120,1,flowers/images/69.jpg,flowers/images/327.jpg,121,Yang,001,2020-11-19_13h19.13.650,test1,2020.2.5,MacIntel,60
,,,,m,0.908,0,121,121,121,1,flowers/images/98.jpg,flowers/images/208.jpg,122,Yang,001,2020-11-19_13h19.13.650,test1,2020.2.5,MacIntel,60
,,,,m,2.162,0,122,122,122,1,flowers/images/184.jpg,flowers/images/96.jpg,123,Yang,001,2020-11-19_13h19.13.650,test1,2020.2.5,MacIntel,60
,,,,m,1.384,0,123,123,123,1,flowers/images/44.jpg,flowers/images/317.jpg,124,Yang,001,2020-11-19_13h19.13.650,test1,2020.2.5,MacIntel,60
,,,,z,1.888,0,124,124,124,1,flowers/images/222.jpg,flowers/images/9.jpg,125,Yang,001,2020-11-19_13h19.13.650,test1,2020.2.5,MacIntel,60
,,,,m,1.441,0,125,125,125,1,flowers/images/218.jpg,flowers/images/153.jpg,126,Yang,001,2020-11-19_13h19.13.650,test1,2020.2.5,MacIntel,60
,,,,z,0.926,0,126,126,126,1,flowers/images/275.jpg,flowers/images/295.jpg,127,Yang,001,2020-11-19_13h19.13.650,test1,2020.2.5,MacIntel,60
,,,,m,1.125,0,127,127,127,1,flowers/images/172.jpg,flowers/images/34.jpg,128,Yang,001,2020-11-19_13h19.13.650,test1,2020.2.5,MacIntel,60
,,,,z,1.509,0,128,128,128,1,flowers/images/345.jpg,flowers/images/89.jpg,129,Yang,001,2020-11-19_13h19.13.650,test1,2020.2.5,MacIntel,60
,,,,m,1.716,0,129,129,129,1,flowers/images/334.jpg,flowers/images/376.jpg,130,Yang,001,2020-11-19_13h19.13.650,test1,2020.2.5,MacIntel,60
,,,,m,1.342,0,130,130,130,1,flowers/images/93.jpg,flowers/images/6.jpg,131,Yang,001,2020-11-19_13h19.13.650,test1,2020.2.5,MacIntel,60
,,,,z,1.989,0,131,131,131,1,flowers/images/183.jpg,flowers/images/76.jpg,132,Yang,001,2020-11-19_13h19.13.650,test1,2020.2.5,MacIntel,60
,,,,z,1.525,0,132,132,132,1,flowers/images/304.jpg,flowers/images/224.jpg,133,Yang,001,2020-11-19_13h19.13.650,test1,2020.2.5,MacIntel,60
,,,,z,1.518,0,133,133,133,1,flowers/images/330.jpg,flowers/images/81.jpg,134,Yang,001,2020-11-19_13h19.13.650,test1,2020.2.5,MacIntel,60
,,,,z,1.45,0,134,134,134,1,flowers/images/147.jpg,flowers/images/36.jpg,135,Yang,001,2020-11-19_13h19.13.650,test1,2020.2.5,MacIntel,60
,,,,z,1.154,0,135,135,135,1,flowers/images/62.jpg,flowers/images/321.jpg,136,Yang,001,2020-11-19_13h19.13.650,test1,2020.2.5,MacIntel,60
,,,,z,1.468,0,136,136,136,1,flowers/images/367.jpg,flowers/images/311.jpg,137,Yang,001,2020-11-19_13h19.13.650,test1,2020.2.5,MacIntel,60
,,,,z,2.701,0,137,137,137,1,flowers/images/326.jpg,flowers/images/7.jpg,138,Yang,001,2020-11-19_13h19.13.650,test1,2020.2.5,MacIntel,60
,,,,m,1.727,0,138,138,138,1,flowers/images/28.jpg,flowers/images/382.jpg,139,Yang,001,2020-11-19_13h19.13.650,test1,2020.2.5,MacIntel,60
,,,,m,2.204,0,139,139,139,1,flowers/images/156.jpg,flowers/images/152.jpg,140,Yang,001,2020-11-19_13h19.13.650,test1,2020.2.5,MacIntel,60
,,,,z,1.265,0,140,140,140,1,flowers/images/113.jpg,flowers/images/167.jpg,141,Yang,001,2020-11-19_13h19.13.650,test1,2020.2.5,MacIntel,60
,,,,m,1.169,0,141,141,141,1,flowers/images/155.jpg,flowers/images/342.jpg,142,Yang,001,2020-11-19_13h19.13.650,test1,2020.2.5,MacIntel,60
,,,,m,0.971,0,142,142,142,1,flowers/images/213.jpg,flowers/images/353.jpg,143,Yang,001,2020-11-19_13h19.13.650,test1,2020.2.5,MacIntel,60
,,,,z,0.857,0,143,143,143,1,flowers/images/298.jpg,flowers/images/90.jpg,144,Yang,001,2020-11-19_13h19.13.650,test1,2020.2.5,MacIntel,60
,,,,z,1.954,0,144,144,144,1,flowers/images/217.jpg,flowers/images/240.jpg,145,Yang,001,2020-11-19_13h19.13.650,test1,2020.2.5,MacIntel,60
,,,,z,1.563,0,145,145,145,1,flowers/images/97.jpg,flowers/images/133.jpg,146,Yang,001,2020-11-19_13h19.13.650,test1,2020.2.5,MacIntel,60
,,,,m,0.683,0,146,146,146,1,flowers/images/354.jpg,flowers/images/310.jpg,147,Yang,001,2020-11-19_13h19.13.650,test1,2020.2.5,MacIntel,60
,,,,z,2.672,0,147,147,147,1,flowers/images/377.jpg,flowers/images/273.jpg,148,Yang,001,2020-11-19_13h19.13.650,test1,2020.2.5,MacIntel,60
,,,,m,0.961,0,148,148,148,1,flowers/images/121.jpg,flowers/images/294.jpg,149,Yang,001,2020-11-19_13h19.13.650,test1,2020.2.5,MacIntel,60
,,,,m,1.822,0,149,149,149,1,flowers/images/14.jpg,flowers/images/101.jpg,150,Yang,001,2020-11-19_13h19.13.650,test1,2020.2.5,MacIntel,60
,,,,m,0.98,0,150,150,150,1,flowers/images/321.jpg,flowers/images/51.jpg,151,Yang,001,2020-11-19_13h19.13.650,test1,2020.2.5,MacIntel,60
,,,,m,0.886,0,151,151,151,1,flowers/images/362.jpg,flowers/images/175.jpg,152,Yang,001,2020-11-19_13h19.13.650,test1,2020.2.5,MacIntel,60
,,,,m,1.106,0,152,152,152,1,flowers/images/203.jpg,flowers/images/248.jpg,153,Yang,001,2020-11-19_13h19.13.650,test1,2020.2.5,MacIntel,60
,,,,m,1.571,0,153,153,153,1,flowers/images/12.jpg,flowers/images/300.jpg,154,Yang,001,2020-11-19_13h19.13.650,test1,2020.2.5,MacIntel,60
,,,,z,1.462,0,154,154,154,1,flowers/images/365.jpg,flowers/images/218.jpg,155,Yang,001,2020-11-19_13h19.13.650,test1,2020.2.5,MacIntel,60
,,,,z,2.498,0,155,155,155,1,flowers/images/75.jpg,flowers/images/109.jpg,156,Yang,001,2020-11-19_13h19.13.650,test1,2020.2.5,MacIntel,60
,,,,m,1.356,0,156,156,156,1,flowers/images/127.jpg,flowers/images/333.jpg,157,Yang,001,2020-11-19_13h19.13.650,test1,2020.2.5,MacIntel,60
,,,,z,2.489,0,157,157,157,1,flowers/images/258.jpg,flowers/images/135.jpg,158,Yang,001,2020-11-19_13h19.13.650,test1,2020.2.5,MacIntel,60
,,,,z,1.12,0,158,158,158,1,flowers/images/343.jpg,flowers/images/65.jpg,159,Yang,001,2020-11-19_13h19.13.650,test1,2020.2.5,MacIntel,60
,,,,m,1.689,0,159,159,159,1,flowers/images/58.jpg,flowers/images/138.jpg,160,Yang,001,2020-11-19_13h19.13.650,test1,2020.2.5,MacIntel,60
,,,,z,2.583,0,160,160,160,1,flowers/images/94.jpg,flowers/images/234.jpg,161,Yang,001,2020-11-19_13h19.13.650,test1,2020.2.5,MacIntel,60
,,,,m,1.01,0,161,161,161,1,flowers/images/379.jpg,flowers/images/207.jpg,162,Yang,001,2020-11-19_13h19.13.650,test1,2020.2.5,MacIntel,60
,,,,m,1.778,0,162,162,162,1,flowers/images/128.jpg,flowers/images/79.jpg,163,Yang,001,2020-11-19_13h19.13.650,test1,2020.2.5,MacIntel,60
,,,,m,1.992,0,163,163,163,1,flowers/images/47.jpg,flowers/images/85.jpg,164,Yang,001,2020-11-19_13h19.13.650,test1,2020.2.5,MacIntel,60
,,,,m,1.101,0,164,164,164,1,flowers/images/19.jpg,flowers/images/191.jpg,165,Yang,001,2020-11-19_13h19.13.650,test1,2020.2.5,MacIntel,60
,,,,m,1.041,0,165,165,165,1,flowers/images/32.jpg,flowers/images/259.jpg,166,Yang,001,2020-11-19_13h19.13.650,test1,2020.2.5,MacIntel,60
,,,,m,0.85,0,166,166,166,1,flowers/images/323.jpg,flowers/images/284.jpg,167,Yang,001,2020-11-19_13h19.13.650,test1,2020.2.5,MacIntel,60
,,,,m,1.005,0,167,167,167,1,flowers/images/395.jpg,flowers/images/348.jpg,168,Yang,001,2020-11-19_13h19.13.650,test1,2020.2.5,MacIntel,60
,,,,m,1.167,0,168,168,168,1,flowers/images/279.jpg,flowers/images/370.jpg,169,Yang,001,2020-11-19_13h19.13.650,test1,2020.2.5,MacIntel,60
,,,,m,1.007,0,169,169,169,1,flowers/images/264.jpg,flowers/images/125.jpg,170,Yang,001,2020-11-19_13h19.13.650,test1,2020.2.5,MacIntel,60
,,,,m,1.143,0,170,170,170,1,flowers/images/77.jpg,flowers/images/318.jpg,171,Yang,001,2020-11-19_13h19.13.650,test1,2020.2.5,MacIntel,60
,,,,m,0.723,0,171,171,171,1,flowers/images/376.jpg,flowers/images/242.jpg,172,Yang,001,2020-11-19_13h19.13.650,test1,2020.2.5,MacIntel,60
,,,,z,1.854,0,172,172,172,1,flowers/images/351.jpg,flowers/images/132.jpg,173,Yang,001,2020-11-19_13h19.13.650,test1,2020.2.5,MacIntel,60
,,,,z,1.404,0,173,173,173,1,flowers/images/305.jpg,flowers/images/252.jpg,174,Yang,001,2020-11-19_13h19.13.650,test1,2020.2.5,MacIntel,60
,,,,m,1.295,0,174,174,174,1,flowers/images/29.jpg,flowers/images/217.jpg,175,Yang,001,2020-11-19_13h19.13.650,test1,2020.2.5,MacIntel,60
,,,,m,1.679,0,175,175,175,1,flowers/images/3.jpg,flowers/images/228.jpg,176,Yang,001,2020-11-19_13h19.13.650,test1,2020.2.5,MacIntel,60
,,,,m,0.855,0,176,176,176,1,flowers/images/199.jpg,flowers/images/330.jpg,177,Yang,001,2020-11-19_13h19.13.650,test1,2020.2.5,MacIntel,60
,,,,z,2.119,0,177,177,177,1,flowers/images/274.jpg,flowers/images/179.jpg,178,Yang,001,2020-11-19_13h19.13.650,test1,2020.2.5,MacIntel,60
,,,,m,2.518,0,178,178,178,1,flowers/images/346.jpg,flowers/images/290.jpg,179,Yang,001,2020-11-19_13h19.13.650,test1,2020.2.5,MacIntel,60
,,,,z,0.933,0,179,179,179,1,flowers/images/56.jpg,flowers/images/204.jpg,180,Yang,001,2020-11-19_13h19.13.650,test1,2020.2.5,MacIntel,60
,,,,m,1.49,0,180,180,180,1,flowers/images/179.jpg,flowers/images/114.jpg,181,Yang,001,2020-11-19_13h19.13.650,test1,2020.2.5,MacIntel,60
,,,,m,1.07,0,181,181,181,1,flowers/images/36.jpg,flowers/images/223.jpg,182,Yang,001,2020-11-19_13h19.13.650,test1,2020.2.5,MacIntel,60
,,,,z,0.971,0,182,182,182,1,flowers/images/344.jpg,flowers/images/168.jpg,183,Yang,001,2020-11-19_13h19.13.650,test1,2020.2.5,MacIntel,60
,,,,z,1.294,0,183,183,183,1,flowers/images/153.jpg,flowers/images/22.jpg,184,Yang,001,2020-11-19_13h19.13.650,test1,2020.2.5,MacIntel,60
,,,,z,0.992,0,184,184,184,1,flowers/images/39.jpg,flowers/images/323.jpg,185,Yang,001,2020-11-19_13h19.13.650,test1,2020.2.5,MacIntel,60
,,,,m,1.957,0,185,185,185,1,flowers/images/327.jpg,flowers/images/349.jpg,186,Yang,001,2020-11-19_13h19.13.650,test1,2020.2.5,MacIntel,60
,,,,z,1.569,0,186,186,186,1,flowers/images/81.jpg,flowers/images/30.jpg,187,Yang,001,2020-11-19_13h19.13.650,test1,2020.2.5,MacIntel,60
,,,,m,1.837,0,187,187,187,1,flowers/images/42.jpg,flowers/images/107.jpg,188,Yang,001,2020-11-19_13h19.13.650,test1,2020.2.5,MacIntel,60
,,,,z,1.208,0,188,188,188,1,flowers/images/18.jpg,flowers/images/358.jpg,189,Yang,001,2020-11-19_13h19.13.650,test1,2020.2.5,MacIntel,60
,,,,z,1.205,0,189,189,189,1,flowers/images/200.jpg,flowers/images/385.jpg,190,Yang,001,2020-11-19_13h19.13.650,test1,2020.2.5,MacIntel,60
,,,,z,1.051,0,190,190,190,1,flowers/images/369.jpg,flowers/images/233.jpg,191,Yang,001,2020-11-19_13h19.13.650,test1,2020.2.5,MacIntel,60
,,,,m,1.104,0,191,191,191,1,flowers/images/309.jpg,flowers/images/320.jpg,192,Yang,001,2020-11-19_13h19.13.650,test1,2020.2.5,MacIntel,60
,,,,m,2.099,0,192,192,192,1,flowers/images/64.jpg,flowers/images/303.jpg,193,Yang,001,2020-11-19_13h19.13.650,test1,2020.2.5,MacIntel,60
,,,,z,1.46,0,193,193,193,1,flowers/images/86.jpg,flowers/images/216.jpg,194,Yang,001,2020-11-19_13h19.13.650,test1,2020.2.5,MacIntel,60
,,,,z,1.158,0,194,194,194,1,flowers/images/260.jpg,flowers/images/361.jpg,195,Yang,001,2020-11-19_13h19.13.650,test1,2020.2.5,MacIntel,60
,,,,z,1.224,0,195,195,195,1,flowers/images/9.jpg,flowers/images/173.jpg,196,Yang,001,2020-11-19_13h19.13.650,test1,2020.2.5,MacIntel,60
,,,,m,0.871,0,196,196,196,1,flowers/images/22.jpg,flowers/images/41.jpg,197,Yang,001,2020-11-19_13h19.13.650,test1,2020.2.5,MacIntel,60
,,,,m,0.954,0,197,197,197,1,flowers/images/214.jpg,flowers/images/145.jpg,198,Yang,001,2020-11-19_13h19.13.650,test1,2020.2.5,MacIntel,60
,,,,z,1.783,0,198,198,198,1,flowers/images/72.jpg,flowers/images/308.jpg,199,Yang,001,2020-11-19_13h19.13.650,test1,2020.2.5,MacIntel,60
,,,,m,1.911,0,199,199,199,1,flowers/images/34.jpg,flowers/images/237.jpg,200,Yang,001,2020-11-19_13h19.13.650,test1,2020.2.5,MacIntel,60
,,,,m,1.808,0,200,200,200,1,flowers/images/166.jpg,flowers/images/169.jpg,201,Yang,001,2020-11-19_13h19.13.650,test1,2020.2.5,MacIntel,60
,,,,m,1.434,0,201,201,201,1,flowers/images/161.jpg,flowers/images/68.jpg,202,Yang,001,2020-11-19_13h19.13.650,test1,2020.2.5,MacIntel,60
,,,,m,0.922,0,202,202,202,1,flowers/images/319.jpg,flowers/images/341.jpg,203,Yang,001,2020-11-19_13h19.13.650,test1,2020.2.5,MacIntel,60
,,,,z,0.941,0,203,203,203,1,flowers/images/322.jpg,flowers/images/111.jpg,204,Yang,001,2020-11-19_13h19.13.650,test1,2020.2.5,MacIntel,60
,,,,z,2.835,0,204,204,204,1,flowers/images/2.jpg,flowers/images/95.jpg,205,Yang,001,2020-11-19_13h19.13.650,test1,2020.2.5,MacIntel,60
,,,,z,0.975,0,205,205,205,1,flowers/images/276.jpg,flowers/images/66.jpg,206,Yang,001,2020-11-19_13h19.13.650,test1,2020.2.5,MacIntel,60
,,,,z,0.903,0,206,206,206,1,flowers/images/116.jpg,flowers/images/206.jpg,207,Yang,001,2020-11-19_13h19.13.650,test1,2020.2.5,MacIntel,60
,,,,z,1.354,0,207,207,207,1,flowers/images/282.jpg,flowers/images/314.jpg,208,Yang,001,2020-11-19_13h19.13.650,test1,2020.2.5,MacIntel,60
,,,,z,0.94,0,208,208,208,1,flowers/images/261.jpg,flowers/images/260.jpg,209,Yang,001,2020-11-19_13h19.13.650,test1,2020.2.5,MacIntel,60
,,,,z,1.026,0,209,209,209,1,flowers/images/353.jpg,flowers/images/151.jpg,210,Yang,001,2020-11-19_13h19.13.650,test1,2020.2.5,MacIntel,60
,,,,m,1.389,0,210,210,210,1,flowers/images/216.jpg,flowers/images/156.jpg,211,Yang,001,2020-11-19_13h19.13.650,test1,2020.2.5,MacIntel,60
,,,,z,1.042,0,211,211,211,1,flowers/images/320.jpg,flowers/images/292.jpg,212,Yang,001,2020-11-19_13h19.13.650,test1,2020.2.5,MacIntel,60
,,,,z,1.368,0,212,212,212,1,flowers/images/149.jpg,flowers/images/279.jpg,213,Yang,001,2020-11-19_13h19.13.650,test1,2020.2.5,MacIntel,60
,,,,z,1.132,0,213,213,213,1,flowers/images/163.jpg,flowers/images/219.jpg,214,Yang,001,2020-11-19_13h19.13.650,test1,2020.2.5,MacIntel,60
,,,,m,1.509,0,214,214,214,1,flowers/images/10.jpg,flowers/images/232.jpg,215,Yang,001,2020-11-19_13h19.13.650,test1,2020.2.5,MacIntel,60
,,,,m,1.035,0,215,215,215,1,flowers/images/55.jpg,flowers/images/73.jpg,216,Yang,001,2020-11-19_13h19.13.650,test1,2020.2.5,MacIntel,60
,,,,m,3.738,0,216,216,216,1,flowers/images/123.jpg,flowers/images/189.jpg,217,Yang,001,2020-11-19_13h19.13.650,test1,2020.2.5,MacIntel,60
,,,,z,1.904,0,217,217,217,1,flowers/images/37.jpg,flowers/images/254.jpg,218,Yang,001,2020-11-19_13h19.13.650,test1,2020.2.5,MacIntel,60
,,,,m,1.074,0,218,218,218,1,flowers/images/230.jpg,flowers/images/166.jpg,219,Yang,001,2020-11-19_13h19.13.650,test1,2020.2.5,MacIntel,60
,,,,m,1.084,0,219,219,219,1,flowers/images/338.jpg,flowers/images/33.jpg,220,Yang,001,2020-11-19_13h19.13.650,test1,2020.2.5,MacIntel,60
,,,,z,0.918,0,220,220,220,1,flowers/images/337.jpg,flowers/images/193.jpg,221,Yang,001,2020-11-19_13h19.13.650,test1,2020.2.5,MacIntel,60
,,,,z,1.073,0,221,221,221,1,flowers/images/83.jpg,flowers/images/339.jpg,222,Yang,001,2020-11-19_13h19.13.650,test1,2020.2.5,MacIntel,60
,,,,z,1.17,0,222,222,222,1,flowers/images/190.jpg,flowers/images/99.jpg,223,Yang,001,2020-11-19_13h19.13.650,test1,2020.2.5,MacIntel,60
,,,,m,0.855,0,223,223,223,1,flowers/images/257.jpg,flowers/images/369.jpg,224,Yang,001,2020-11-19_13h19.13.650,test1,2020.2.5,MacIntel,60
,,,,m,4.079,0,224,224,224,1,flowers/images/280.jpg,flowers/images/355.jpg,225,Yang,001,2020-11-19_13h19.13.650,test1,2020.2.5,MacIntel,60
,,,,z,1.028,0,225,225,225,1,flowers/images/105.jpg,flowers/images/338.jpg,226,Yang,001,2020-11-19_13h19.13.650,test1,2020.2.5,MacIntel,60
,,,,m,2.21,0,226,226,226,1,flowers/images/202.jpg,flowers/images/3.jpg,227,Yang,001,2020-11-19_13h19.13.650,test1,2020.2.5,MacIntel,60
,,,,m,1.77,0,227,227,227,1,flowers/images/212.jpg,flowers/images/38.jpg,228,Yang,001,2020-11-19_13h19.13.650,test1,2020.2.5,MacIntel,60
,,,,m,1.44,0,228,228,228,1,flowers/images/152.jpg,flowers/images/0.jpg,229,Yang,001,2020-11-19_13h19.13.650,test1,2020.2.5,MacIntel,60
,,,,z,2.459,0,229,229,229,1,flowers/images/170.jpg,flowers/images/296.jpg,230,Yang,001,2020-11-19_13h19.13.650,test1,2020.2.5,MacIntel,60
,,,,m,1.096,0,230,230,230,1,flowers/images/74.jpg,flowers/images/80.jpg,231,Yang,001,2020-11-19_13h19.13.650,test1,2020.2.5,MacIntel,60
,,,,m,1.134,0,231,231,231,1,flowers/images/226.jpg,flowers/images/117.jpg,232,Yang,001,2020-11-19_13h19.13.650,test1,2020.2.5,MacIntel,60
,,,,m,1.284,0,232,232,232,1,flowers/images/1.jpg,flowers/images/19.jpg,233,Yang,001,2020-11-19_13h19.13.650,test1,2020.2.5,MacIntel,60
,,,,m,0.917,0,233,233,233,1,flowers/images/182.jpg,flowers/images/335.jpg,234,Yang,001,2020-11-19_13h19.13.650,test1,2020.2.5,MacIntel,60
,,,,z,1.157,0,234,234,234,1,flowers/images/245.jpg,flowers/images/62.jpg,235,Yang,001,2020-11-19_13h19.13.650,test1,2020.2.5,MacIntel,60
,,,,m,1.031,0,235,235,235,1,flowers/images/167.jpg,flowers/images/49.jpg,236,Yang,001,2020-11-19_13h19.13.650,test1,2020.2.5,MacIntel,60
,,,,z,1.394,0,236,236,236,1,flowers/images/38.jpg,flowers/images/250.jpg,237,Yang,001,2020-11-19_13h19.13.650,test1,2020.2.5,MacIntel,60
,,,,m,1.977,0,237,237,237,1,flowers/images/124.jpg,flowers/images/324.jpg,238,Yang,001,2020-11-19_13h19.13.650,test1,2020.2.5,MacIntel,60
,,,,z,1.755,0,238,238,238,1,flowers/images/92.jpg,flowers/images/13.jpg,239,Yang,001,2020-11-19_13h19.13.650,test1,2020.2.5,MacIntel,60
,,,,m,1.2,0,239,239,239,1,flowers/images/120.jpg,flowers/images/374.jpg,240,Yang,001,2020-11-19_13h19.13.650,test1,2020.2.5,MacIntel,60
,,,,z,1.26,0,240,240,240,1,flowers/images/350.jpg,flowers/images/100.jpg,241,Yang,001,2020-11-19_13h19.13.650,test1,2020.2.5,MacIntel,60
,,,,z,0.526,0,241,241,241,1,flowers/images/68.jpg,flowers/images/236.jpg,242,Yang,001,2020-11-19_13h19.13.650,test1,2020.2.5,MacIntel,60
,,,,z,1.141,0,242,242,242,1,flowers/images/5.jpg,flowers/images/340.jpg,243,Yang,001,2020-11-19_13h19.13.650,test1,2020.2.5,MacIntel,60
,,,,m,1.073,0,243,243,243,1,flowers/images/99.jpg,flowers/images/313.jpg,244,Yang,001,2020-11-19_13h19.13.650,test1,2020.2.5,MacIntel,60
,,,,z,1.312,0,244,244,244,1,flowers/images/229.jpg,flowers/images/177.jpg,245,Yang,001,2020-11-19_13h19.13.650,test1,2020.2.5,MacIntel,60
,,,,m,1.112,0,245,245,245,1,flowers/images/361.jpg,flowers/images/383.jpg,246,Yang,001,2020-11-19_13h19.13.650,test1,2020.2.5,MacIntel,60
,,,,m,1.439,0,246,246,246,1,flowers/images/129.jpg,flowers/images/398.jpg,247,Yang,001,2020-11-19_13h19.13.650,test1,2020.2.5,MacIntel,60
,,,,z,1.681,0,247,247,247,1,flowers/images/228.jpg,flowers/images/159.jpg,248,Yang,001,2020-11-19_13h19.13.650,test1,2020.2.5,MacIntel,60
,,,,z,1.016,0,248,248,248,1,flowers/images/65.jpg,flowers/images/312.jpg,249,Yang,001,2020-11-19_13h19.13.650,test1,2020.2.5,MacIntel,60
,,,,z,1.608,0,249,249,249,1,flowers/images/73.jpg,flowers/images/163.jpg,250,Yang,001,2020-11-19_13h19.13.650,test1,2020.2.5,MacIntel,60
,,,,m,0.767,0,250,250,250,1,flowers/images/224.jpg,flowers/images/278.jpg,251,Yang,001,2020-11-19_13h19.13.650,test1,2020.2.5,MacIntel,60
,,,,m,2.058,0,251,251,251,1,flowers/images/312.jpg,flowers/images/185.jpg,252,Yang,001,2020-11-19_13h19.13.650,test1,2020.2.5,MacIntel,60
,,,,m,0.672,0,252,252,252,1,flowers/images/256.jpg,flowers/images/112.jpg,253,Yang,001,2020-11-19_13h19.13.650,test1,2020.2.5,MacIntel,60
,,,,m,0.878,0,253,253,253,1,flowers/images/26.jpg,flowers/images/261.jpg,254,Yang,001,2020-11-19_13h19.13.650,test1,2020.2.5,MacIntel,60
,,,,z,1.491,0,254,254,254,1,flowers/images/51.jpg,flowers/images/106.jpg,255,Yang,001,2020-11-19_13h19.13.650,test1,2020.2.5,MacIntel,60
,,,,z,0.942,0,255,255,255,1,flowers/images/371.jpg,flowers/images/160.jpg,256,Yang,001,2020-11-19_13h19.13.650,test1,2020.2.5,MacIntel,60
,,,,z,1.943,0,256,256,256,1,flowers/images/59.jpg,flowers/images/257.jpg,257,Yang,001,2020-11-19_13h19.13.650,test1,2020.2.5,MacIntel,60
,,,,m,0.642,0,257,257,257,1,flowers/images/347.jpg,flowers/images/190.jpg,258,Yang,001,2020-11-19_13h19.13.650,test1,2020.2.5,MacIntel,60
,,,,z,1.561,0,258,258,258,1,flowers/images/8.jpg,flowers/images/209.jpg,259,Yang,001,2020-11-19_13h19.13.650,test1,2020.2.5,MacIntel,60
,,,,z,0.876,0,259,259,259,1,flowers/images/278.jpg,flowers/images/31.jpg,260,Yang,001,2020-11-19_13h19.13.650,test1,2020.2.5,MacIntel,60
,,,,z,1.015,0,260,260,260,1,flowers/images/262.jpg,flowers/images/325.jpg,261,Yang,001,2020-11-19_13h19.13.650,test1,2020.2.5,MacIntel,60
,,,,m,0.845,0,261,261,261,1,flowers/images/273.jpg,flowers/images/83.jpg,262,Yang,001,2020-11-19_13h19.13.650,test1,2020.2.5,MacIntel,60
,,,,m,1.132,0,262,262,262,1,flowers/images/52.jpg,flowers/images/17.jpg,263,Yang,001,2020-11-19_13h19.13.650,test1,2020.2.5,MacIntel,60
,,,,z,0.862,0,263,263,263,1,flowers/images/243.jpg,flowers/images/27.jpg,264,Yang,001,2020-11-19_13h19.13.650,test1,2020.2.5,MacIntel,60
,,,,z,0.958,0,264,264,264,1,flowers/images/175.jpg,flowers/images/192.jpg,265,Yang,001,2020-11-19_13h19.13.650,test1,2020.2.5,MacIntel,60
,,,,m,1.091,0,265,265,265,1,flowers/images/53.jpg,flowers/images/199.jpg,266,Yang,001,2020-11-19_13h19.13.650,test1,2020.2.5,MacIntel,60
,,,,m,0.792,0,266,266,266,1,flowers/images/316.jpg,flowers/images/381.jpg,267,Yang,001,2020-11-19_13h19.13.650,test1,2020.2.5,MacIntel,60
,,,,z,0.981,0,267,267,267,1,flowers/images/249.jpg,flowers/images/213.jpg,268,Yang,001,2020-11-19_13h19.13.650,test1,2020.2.5,MacIntel,60
,,,,m,0.939,0,268,268,268,1,flowers/images/70.jpg,flowers/images/60.jpg,269,Yang,001,2020-11-19_13h19.13.650,test1,2020.2.5,MacIntel,60
,,,,m,1.327,0,269,269,269,1,flowers/images/300.jpg,flowers/images/386.jpg,270,Yang,001,2020-11-19_13h19.13.650,test1,2020.2.5,MacIntel,60
,,,,z,0.209,0,270,270,270,1,flowers/images/162.jpg,flowers/images/149.jpg,271,Yang,001,2020-11-19_13h19.13.650,test1,2020.2.5,MacIntel,60
,,,,m,0.838,0,271,271,271,1,flowers/images/146.jpg,flowers/images/336.jpg,272,Yang,001,2020-11-19_13h19.13.650,test1,2020.2.5,MacIntel,60
,,,,m,0.859,0,272,272,272,1,flowers/images/115.jpg,flowers/images/120.jpg,273,Yang,001,2020-11-19_13h19.13.650,test1,2020.2.5,MacIntel,60
,,,,z,2.03,0,273,273,273,1,flowers/images/311.jpg,flowers/images/123.jpg,274,Yang,001,2020-11-19_13h19.13.650,test1,2020.2.5,MacIntel,60
,,,,z,1.525,0,274,274,274,1,flowers/images/33.jpg,flowers/images/146.jpg,275,Yang,001,2020-11-19_13h19.13.650,test1,2020.2.5,MacIntel,60
,,,,m,1.531,0,275,275,275,1,flowers/images/78.jpg,flowers/images/352.jpg,276,Yang,001,2020-11-19_13h19.13.650,test1,2020.2.5,MacIntel,60
,,,,m,1.334,0,276,276,276,1,flowers/images/43.jpg,flowers/images/50.jpg,277,Yang,001,2020-11-19_13h19.13.650,test1,2020.2.5,MacIntel,60
,,,,m,1.465,0,277,277,277,1,flowers/images/373.jpg,flowers/images/78.jpg,278,Yang,001,2020-11-19_13h19.13.650,test1,2020.2.5,MacIntel,60
,,,,z,1.212,0,278,278,278,1,flowers/images/233.jpg,flowers/images/134.jpg,279,Yang,001,2020-11-19_13h19.13.650,test1,2020.2.5,MacIntel,60
,,,,z,1.663,0,279,279,279,1,flowers/images/386.jpg,flowers/images/390.jpg,280,Yang,001,2020-11-19_13h19.13.650,test1,2020.2.5,MacIntel,60
,,,,m,1.889,0,280,280,280,1,flowers/images/205.jpg,flowers/images/388.jpg,281,Yang,001,2020-11-19_13h19.13.650,test1,2020.2.5,MacIntel,60
,,,,m,0.704,0,281,281,281,1,flowers/images/130.jpg,flowers/images/48.jpg,282,Yang,001,2020-11-19_13h19.13.650,test1,2020.2.5,MacIntel,60
,,,,z,0.872,0,282,282,282,1,flowers/images/187.jpg,flowers/images/253.jpg,283,Yang,001,2020-11-19_13h19.13.650,test1,2020.2.5,MacIntel,60
,,,,z,2.063,0,283,283,283,1,flowers/images/232.jpg,flowers/images/141.jpg,284,Yang,001,2020-11-19_13h19.13.650,test1,2020.2.5,MacIntel,60
,,,,m,0.854,0,284,284,284,1,flowers/images/253.jpg,flowers/images/71.jpg,285,Yang,001,2020-11-19_13h19.13.650,test1,2020.2.5,MacIntel,60
,,,,z,1.005,0,285,285,285,1,flowers/images/332.jpg,flowers/images/322.jpg,286,Yang,001,2020-11-19_13h19.13.650,test1,2020.2.5,MacIntel,60
,,,,m,1.182,0,286,286,286,1,flowers/images/103.jpg,flowers/images/182.jpg,287,Yang,001,2020-11-19_13h19.13.650,test1,2020.2.5,MacIntel,60
,,,,m,1.126,0,287,287,287,1,flowers/images/271.jpg,flowers/images/103.jpg,288,Yang,001,2020-11-19_13h19.13.650,test1,2020.2.5,MacIntel,60
,,,,m,0.956,0,288,288,288,1,flowers/images/63.jpg,flowers/images/227.jpg,289,Yang,001,2020-11-19_13h19.13.650,test1,2020.2.5,MacIntel,60
,,,,m,0.945,0,289,289,289,1,flowers/images/382.jpg,flowers/images/359.jpg,290,Yang,001,2020-11-19_13h19.13.650,test1,2020.2.5,MacIntel,60
,,,,z,1.263,0,290,290,290,1,flowers/images/252.jpg,flowers/images/87.jpg,291,Yang,001,2020-11-19_13h19.13.650,test1,2020.2.5,MacIntel,60
,,,,m,1.14,0,291,291,291,1,flowers/images/101.jpg,flowers/images/196.jpg,292,Yang,001,2020-11-19_13h19.13.650,test1,2020.2.5,MacIntel,60
,,,,z,0.769,0,292,292,292,1,flowers/images/104.jpg,flowers/images/270.jpg,293,Yang,001,2020-11-19_13h19.13.650,test1,2020.2.5,MacIntel,60
,,,,z,1.763,0,293,293,293,1,flowers/images/270.jpg,flowers/images/108.jpg,294,Yang,001,2020-11-19_13h19.13.650,test1,2020.2.5,MacIntel,60
,,,,m,1.511,0,294,294,294,1,flowers/images/0.jpg,flowers/images/143.jpg,295,Yang,001,2020-11-19_13h19.13.650,test1,2020.2.5,MacIntel,60
,,,,m,0.943,0,295,295,295,1,flowers/images/348.jpg,flowers/images/276.jpg,296,Yang,001,2020-11-19_13h19.13.650,test1,2020.2.5,MacIntel,60
,,,,z,1.196,0,296,296,296,1,flowers/images/251.jpg,flowers/images/55.jpg,297,Yang,001,2020-11-19_13h19.13.650,test1,2020.2.5,MacIntel,60
,,,,m,1.439,0,297,297,297,1,flowers/images/119.jpg,flowers/images/43.jpg,298,Yang,001,2020-11-19_13h19.13.650,test1,2020.2.5,MacIntel,60
,,,,z,1.474,0,298,298,298,1,flowers/images/158.jpg,flowers/images/46.jpg,299,Yang,001,2020-11-19_13h19.13.650,test1,2020.2.5,MacIntel,60
,,,,z,1.521,0,299,299,299,1,flowers/images/297.jpg,flowers/images/205.jpg,300,Yang,001,2020-11-19_13h19.13.650,test1,2020.2.5,MacIntel,60
,,,,m,1.129,0,300,300,300,1,flowers/images/25.jpg,flowers/images/54.jpg,301,Yang,001,2020-11-19_13h19.13.650,test1,2020.2.5,MacIntel,60
,,,,m,1.143,0,301,301,301,1,flowers/images/67.jpg,flowers/images/331.jpg,302,Yang,001,2020-11-19_13h19.13.650,test1,2020.2.5,MacIntel,60
,,,,z,1.517,0,302,302,302,1,flowers/images/366.jpg,flowers/images/372.jpg,303,Yang,001,2020-11-19_13h19.13.650,test1,2020.2.5,MacIntel,60
,,,,m,0.82,0,303,303,303,1,flowers/images/4.jpg,flowers/images/220.jpg,304,Yang,001,2020-11-19_13h19.13.650,test1,2020.2.5,MacIntel,60
,,,,z,1.141,0,304,304,304,1,flowers/images/90.jpg,flowers/images/148.jpg,305,Yang,001,2020-11-19_13h19.13.650,test1,2020.2.5,MacIntel,60
,,,,m,1.241,0,305,305,305,1,flowers/images/198.jpg,flowers/images/380.jpg,306,Yang,001,2020-11-19_13h19.13.650,test1,2020.2.5,MacIntel,60
,,,,m,2.296,0,306,306,306,1,flowers/images/375.jpg,flowers/images/362.jpg,307,Yang,001,2020-11-19_13h19.13.650,test1,2020.2.5,MacIntel,60
,,,,z,0.992,0,307,307,307,1,flowers/images/372.jpg,flowers/images/98.jpg,308,Yang,001,2020-11-19_13h19.13.650,test1,2020.2.5,MacIntel,60
,,,,z,0.745,0,308,308,308,1,flowers/images/364.jpg,flowers/images/12.jpg,309,Yang,001,2020-11-19_13h19.13.650,test1,2020.2.5,MacIntel,60
,,,,m,1.007,0,309,309,309,1,flowers/images/176.jpg,flowers/images/316.jpg,310,Yang,001,2020-11-19_13h19.13.650,test1,2020.2.5,MacIntel,60
,,,,z,1.374,0,310,310,310,1,flowers/images/48.jpg,flowers/images/75.jpg,311,Yang,001,2020-11-19_13h19.13.650,test1,2020.2.5,MacIntel,60
,,,,m,0.815,0,311,311,311,1,flowers/images/188.jpg,flowers/images/8.jpg,312,Yang,001,2020-11-19_13h19.13.650,test1,2020.2.5,MacIntel,60
,,,,m,0.892,0,312,312,312,1,flowers/images/288.jpg,flowers/images/251.jpg,313,Yang,001,2020-11-19_13h19.13.650,test1,2020.2.5,MacIntel,60
,,,,m,1.083,0,313,313,313,1,flowers/images/349.jpg,flowers/images/282.jpg,314,Yang,001,2020-11-19_13h19.13.650,test1,2020.2.5,MacIntel,60
,,,,z,1.459,0,314,314,314,1,flowers/images/135.jpg,flowers/images/172.jpg,315,Yang,001,2020-11-19_13h19.13.650,test1,2020.2.5,MacIntel,60
,,,,z,1.157,0,315,315,315,1,flowers/images/283.jpg,flowers/images/139.jpg,316,Yang,001,2020-11-19_13h19.13.650,test1,2020.2.5,MacIntel,60
,,,,z,1.691,0,316,316,316,1,flowers/images/301.jpg,flowers/images/102.jpg,317,Yang,001,2020-11-19_13h19.13.650,test1,2020.2.5,MacIntel,60
,,,,m,0.648,0,317,317,317,1,flowers/images/164.jpg,flowers/images/392.jpg,318,Yang,001,2020-11-19_13h19.13.650,test1,2020.2.5,MacIntel,60
,,,,z,1.544,0,318,318,318,1,flowers/images/385.jpg,flowers/images/244.jpg,319,Yang,001,2020-11-19_13h19.13.650,test1,2020.2.5,MacIntel,60
,,,,m,1.008,0,319,319,319,1,flowers/images/137.jpg,flowers/images/104.jpg,320,Yang,001,2020-11-19_13h19.13.650,test1,2020.2.5,MacIntel,60
,,,,z,1.656,0,320,320,320,1,flowers/images/23.jpg,flowers/images/157.jpg,321,Yang,001,2020-11-19_13h19.13.650,test1,2020.2.5,MacIntel,60
,,,,z,1.075,0,321,321,321,1,flowers/images/310.jpg,flowers/images/238.jpg,322,Yang,001,2020-11-19_13h19.13.650,test1,2020.2.5,MacIntel,60
,,,,z,1.776,0,322,322,322,1,flowers/images/215.jpg,flowers/images/222.jpg,323,Yang,001,2020-11-19_13h19.13.650,test1,2020.2.5,MacIntel,60
,,,,m,1.629,0,323,323,323,1,flowers/images/244.jpg,flowers/images/274.jpg,324,Yang,001,2020-11-19_13h19.13.650,test1,2020.2.5,MacIntel,60
,,,,z,1.205,0,324,324,324,1,flowers/images/313.jpg,flowers/images/329.jpg,325,Yang,001,2020-11-19_13h19.13.650,test1,2020.2.5,MacIntel,60
,,,,m,1.445,0,325,325,325,1,flowers/images/207.jpg,flowers/images/188.jpg,326,Yang,001,2020-11-19_13h19.13.650,test1,2020.2.5,MacIntel,60
,,,,m,2.54,0,326,326,326,1,flowers/images/265.jpg,flowers/images/351.jpg,327,Yang,001,2020-11-19_13h19.13.650,test1,2020.2.5,MacIntel,60
,,,,m,1.64,0,327,327,327,1,flowers/images/248.jpg,flowers/images/239.jpg,328,Yang,001,2020-11-19_13h19.13.650,test1,2020.2.5,MacIntel,60
,,,,z,1.221,0,328,328,328,1,flowers/images/204.jpg,flowers/images/225.jpg,329,Yang,001,2020-11-19_13h19.13.650,test1,2020.2.5,MacIntel,60
,,,,m,1.945,0,329,329,329,1,flowers/images/13.jpg,flowers/images/119.jpg,330,Yang,001,2020-11-19_13h19.13.650,test1,2020.2.5,MacIntel,60
,,,,m,1.229,0,330,330,330,1,flowers/images/370.jpg,flowers/images/39.jpg,331,Yang,001,2020-11-19_13h19.13.650,test1,2020.2.5,MacIntel,60
,,,,m,1.909,0,331,331,331,1,flowers/images/397.jpg,flowers/images/69.jpg,332,Yang,001,2020-11-19_13h19.13.650,test1,2020.2.5,MacIntel,60
,,,,m,1.165,0,332,332,332,1,flowers/images/393.jpg,flowers/images/399.jpg,333,Yang,001,2020-11-19_13h19.13.650,test1,2020.2.5,MacIntel,60
,,,,m,1.908,0,333,333,333,1,flowers/images/363.jpg,flowers/images/74.jpg,334,Yang,001,2020-11-19_13h19.13.650,test1,2020.2.5,MacIntel,60
,,,,z,1.112,0,334,334,334,1,flowers/images/254.jpg,flowers/images/174.jpg,335,Yang,001,2020-11-19_13h19.13.650,test1,2020.2.5,MacIntel,60
,,,,m,1.041,0,335,335,335,1,flowers/images/139.jpg,flowers/images/70.jpg,336,Yang,001,2020-11-19_13h19.13.650,test1,2020.2.5,MacIntel,60
,,,,m,0.784,0,336,336,336,1,flowers/images/95.jpg,flowers/images/315.jpg,337,Yang,001,2020-11-19_13h19.13.650,test1,2020.2.5,MacIntel,60
,,,,z,1.196,0,337,337,337,1,flowers/images/294.jpg,flowers/images/334.jpg,338,Yang,001,2020-11-19_13h19.13.650,test1,2020.2.5,MacIntel,60
,,,,m,1.392,0,338,338,338,1,flowers/images/174.jpg,flowers/images/171.jpg,339,Yang,001,2020-11-19_13h19.13.650,test1,2020.2.5,MacIntel,60
,,,,m,1.151,0,339,339,339,1,flowers/images/57.jpg,flowers/images/326.jpg,340,Yang,001,2020-11-19_13h19.13.650,test1,2020.2.5,MacIntel,60
,,,,z,0.907,0,340,340,340,1,flowers/images/246.jpg,flowers/images/82.jpg,341,Yang,001,2020-11-19_13h19.13.650,test1,2020.2.5,MacIntel,60
,,,,m,1.939,0,341,341,341,1,flowers/images/16.jpg,flowers/images/45.jpg,342,Yang,001,2020-11-19_13h19.13.650,test1,2020.2.5,MacIntel,60
,,,,z,0.933,0,342,342,342,1,flowers/images/380.jpg,flowers/images/150.jpg,343,Yang,001,2020-11-19_13h19.13.650,test1,2020.2.5,MacIntel,60
,,,,m,0.81,0,343,343,343,1,flowers/images/109.jpg,flowers/images/350.jpg,344,Yang,001,2020-11-19_13h19.13.650,test1,2020.2.5,MacIntel,60
,,,,m,1.4,0,344,344,344,1,flowers/images/223.jpg,flowers/images/366.jpg,345,Yang,001,2020-11-19_13h19.13.650,test1,2020.2.5,MacIntel,60
,,,,z,1.272,0,345,345,345,1,flowers/images/60.jpg,flowers/images/194.jpg,346,Yang,001,2020-11-19_13h19.13.650,test1,2020.2.5,MacIntel,60
,,,,m,1.063,0,346,346,346,1,flowers/images/268.jpg,flowers/images/332.jpg,347,Yang,001,2020-11-19_13h19.13.650,test1,2020.2.5,MacIntel,60
,,,,z,0.649,0,347,347,347,1,flowers/images/388.jpg,flowers/images/319.jpg,348,Yang,001,2020-11-19_13h19.13.650,test1,2020.2.5,MacIntel,60
,,,,m,0.726,0,348,348,348,1,flowers/images/356.jpg,flowers/images/337.jpg,349,Yang,001,2020-11-19_13h19.13.650,test1,2020.2.5,MacIntel,60
,,,,m,0.874,0,349,349,349,1,flowers/images/384.jpg,flowers/images/344.jpg,350,Yang,001,2020-11-19_13h19.13.650,test1,2020.2.5,MacIntel,60
,,,,m,0.724,0,350,350,350,1,flowers/images/333.jpg,flowers/images/346.jpg,351,Yang,001,2020-11-19_13h19.13.650,test1,2020.2.5,MacIntel,60
,,,,m,1.556,0,351,351,351,1,flowers/images/24.jpg,flowers/images/116.jpg,352,Yang,001,2020-11-19_13h19.13.650,test1,2020.2.5,MacIntel,60
,,,,m,1.094,0,352,352,352,1,flowers/images/220.jpg,flowers/images/235.jpg,353,Yang,001,2020-11-19_13h19.13.650,test1,2020.2.5,MacIntel,60
,,,,z,1.24,0,353,353,353,1,flowers/images/269.jpg,flowers/images/198.jpg,354,Yang,001,2020-11-19_13h19.13.650,test1,2020.2.5,MacIntel,60
,,,,m,1.249,0,354,354,354,1,flowers/images/107.jpg,flowers/images/1.jpg,355,Yang,001,2020-11-19_13h19.13.650,test1,2020.2.5,MacIntel,60
,,,,z,1.058,0,355,355,355,1,flowers/images/314.jpg,flowers/images/147.jpg,356,Yang,001,2020-11-19_13h19.13.650,test1,2020.2.5,MacIntel,60
,,,,z,1.195,0,356,356,356,1,flowers/images/117.jpg,flowers/images/258.jpg,357,Yang,001,2020-11-19_13h19.13.650,test1,2020.2.5,MacIntel,60
,,,,z,1.142,0,357,357,357,1,flowers/images/41.jpg,flowers/images/214.jpg,358,Yang,001,2020-11-19_13h19.13.650,test1,2020.2.5,MacIntel,60
,,,,z,1.11,0,358,358,358,1,flowers/images/306.jpg,flowers/images/118.jpg,359,Yang,001,2020-11-19_13h19.13.650,test1,2020.2.5,MacIntel,60
,,,,z,1.412,0,359,359,359,1,flowers/images/299.jpg,flowers/images/40.jpg,360,Yang,001,2020-11-19_13h19.13.650,test1,2020.2.5,MacIntel,60
,,,,z,1.757,0,360,360,360,1,flowers/images/50.jpg,flowers/images/291.jpg,361,Yang,001,2020-11-19_13h19.13.650,test1,2020.2.5,MacIntel,60
,,,,z,1.723,0,361,361,361,1,flowers/images/238.jpg,flowers/images/129.jpg,362,Yang,001,2020-11-19_13h19.13.650,test1,2020.2.5,MacIntel,60
,,,,m,3.278,0,362,362,362,1,flowers/images/30.jpg,flowers/images/136.jpg,363,Yang,001,2020-11-19_13h19.13.650,test1,2020.2.5,MacIntel,60
,,,,m,1.058,0,363,363,363,1,flowers/images/211.jpg,flowers/images/306.jpg,364,Yang,001,2020-11-19_13h19.13.650,test1,2020.2.5,MacIntel,60
,,,,z,1.644,0,364,364,364,1,flowers/images/227.jpg,flowers/images/57.jpg,365,Yang,001,2020-11-19_13h19.13.650,test1,2020.2.5,MacIntel,60
,,,,m,0.856,0,365,365,365,1,flowers/images/242.jpg,flowers/images/61.jpg,366,Yang,001,2020-11-19_13h19.13.650,test1,2020.2.5,MacIntel,60
,,,,z,0.924,0,366,366,366,1,flowers/images/387.jpg,flowers/images/263.jpg,367,Yang,001,2020-11-19_13h19.13.650,test1,2020.2.5,MacIntel,60
,,,,m,0.896,0,367,367,367,1,flowers/images/193.jpg,flowers/images/367.jpg,368,Yang,001,2020-11-19_13h19.13.650,test1,2020.2.5,MacIntel,60
,,,,m,1.191,0,368,368,368,1,flowers/images/231.jpg,flowers/images/18.jpg,369,Yang,001,2020-11-19_13h19.13.650,test1,2020.2.5,MacIntel,60
,,,,z,1.041,0,369,369,369,1,flowers/images/154.jpg,flowers/images/32.jpg,370,Yang,001,2020-11-19_13h19.13.650,test1,2020.2.5,MacIntel,60
,,,,m,0.892,0,370,370,370,1,flowers/images/79.jpg,flowers/images/301.jpg,371,Yang,001,2020-11-19_13h19.13.650,test1,2020.2.5,MacIntel,60
,,,,z,1.392,0,371,371,371,1,flowers/images/263.jpg,flowers/images/210.jpg,372,Yang,001,2020-11-19_13h19.13.650,test1,2020.2.5,MacIntel,60
,,,,m,0.658,0,372,372,372,1,flowers/images/383.jpg,flowers/images/354.jpg,373,Yang,001,2020-11-19_13h19.13.650,test1,2020.2.5,MacIntel,60
,,,,z,1.216,0,373,373,373,1,flowers/images/290.jpg,flowers/images/212.jpg,374,Yang,001,2020-11-19_13h19.13.650,test1,2020.2.5,MacIntel,60
,,,,m,1.43,0,374,374,374,1,flowers/images/206.jpg,flowers/images/397.jpg,375,Yang,001,2020-11-19_13h19.13.650,test1,2020.2.5,MacIntel,60
,,,,z,2.376,0,375,375,375,1,flowers/images/317.jpg,flowers/images/297.jpg,376,Yang,001,2020-11-19_13h19.13.650,test1,2020.2.5,MacIntel,60
,,,,z,1.726,0,376,376,376,1,flowers/images/329.jpg,flowers/images/255.jpg,377,Yang,001,2020-11-19_13h19.13.650,test1,2020.2.5,MacIntel,60
,,,,m,1.763,0,377,377,377,1,flowers/images/225.jpg,flowers/images/91.jpg,378,Yang,001,2020-11-19_13h19.13.650,test1,2020.2.5,MacIntel,60
,,,,z,2.541,0,378,378,378,1,flowers/images/11.jpg,flowers/images/256.jpg,379,Yang,001,2020-11-19_13h19.13.650,test1,2020.2.5,MacIntel,60
,,,,z,1.408,0,379,379,379,1,flowers/images/234.jpg,flowers/images/64.jpg,380,Yang,001,2020-11-19_13h19.13.650,test1,2020.2.5,MacIntel,60
,,,,z,0.948,0,380,380,380,1,flowers/images/342.jpg,flowers/images/26.jpg,381,Yang,001,2020-11-19_13h19.13.650,test1,2020.2.5,MacIntel,60
,,,,m,3.957,0,381,381,381,1,flowers/images/391.jpg,flowers/images/286.jpg,382,Yang,001,2020-11-19_13h19.13.650,test1,2020.2.5,MacIntel,60
,,,,z,1.181,0,382,382,382,1,flowers/images/221.jpg,flowers/images/268.jpg,383,Yang,001,2020-11-19_13h19.13.650,test1,2020.2.5,MacIntel,60
,,,,z,1.411,0,383,383,383,1,flowers/images/210.jpg,flowers/images/84.jpg,384,Yang,001,2020-11-19_13h19.13.650,test1,2020.2.5,MacIntel,60
,,,,m,0.114,0,384,384,384,1,flowers/images/138.jpg,flowers/images/77.jpg,385,Yang,001,2020-11-19_13h19.13.650,test1,2020.2.5,MacIntel,60
,,,,m,2.16,0,385,385,385,1,flowers/images/315.jpg,flowers/images/269.jpg,386,Yang,001,2020-11-19_13h19.13.650,test1,2020.2.5,MacIntel,60
,,,,m,1.657,0,386,386,386,1,flowers/images/308.jpg,flowers/images/265.jpg,387,Yang,001,2020-11-19_13h19.13.650,test1,2020.2.5,MacIntel,60
,,,,z,0.958,0,387,387,387,1,flowers/images/88.jpg,flowers/images/56.jpg,388,Yang,001,2020-11-19_13h19.13.650,test1,2020.2.5,MacIntel,60
,,,,z,1.197,0,388,388,388,1,flowers/images/102.jpg,flowers/images/126.jpg,389,Yang,001,2020-11-19_13h19.13.650,test1,2020.2.5,MacIntel,60
,,,,m,1.481,0,389,389,389,1,flowers/images/132.jpg,flowers/images/389.jpg,390,Yang,001,2020-11-19_13h19.13.650,test1,2020.2.5,MacIntel,60
,,,,z,1.56,0,390,390,390,1,flowers/images/186.jpg,flowers/images/144.jpg,391,Yang,001,2020-11-19_13h19.13.650,test1,2020.2.5,MacIntel,60
,,,,m,1.13,0,391,391,391,1,flowers/images/284.jpg,flowers/images/92.jpg,392,Yang,001,2020-11-19_13h19.13.650,test1,2020.2.5,MacIntel,60
,,,,z,1.746,0,392,392,392,1,flowers/images/396.jpg,flowers/images/24.jpg,393,Yang,001,2020-11-19_13h19.13.650,test1,2020.2.5,MacIntel,60
,,,,z,1.949,0,393,393,393,1,flowers/images/374.jpg,flowers/images/287.jpg,394,Yang,001,2020-11-19_13h19.13.650,test1,2020.2.5,MacIntel,60
,,,,m,1.325,0,394,394,394,1,flowers/images/140.jpg,flowers/images/267.jpg,395,Yang,001,2020-11-19_13h19.13.650,test1,2020.2.5,MacIntel,60
,,,,m,1.131,0,395,395,395,1,flowers/images/267.jpg,flowers/images/343.jpg,396,Yang,001,2020-11-19_13h19.13.650,test1,2020.2.5,MacIntel,60
,,,,m,1.125,0,396,396,396,1,flowers/images/286.jpg,flowers/images/35.jpg,397,Yang,001,2020-11-19_13h19.13.650,test1,2020.2.5,MacIntel,60
,,,,z,1.624,0,397,397,397,1,flowers/images/143.jpg,flowers/images/391.jpg,398,Yang,001,2020-11-19_13h19.13.650,test1,2020.2.5,MacIntel,60
,,,,m,1.238,0,398,398,398,1,flowers/images/196.jpg,flowers/images/155.jpg,399,Yang,001,2020-11-19_13h19.13.650,test1,2020.2.5,MacIntel,60
,,,,z,1.96,0,399,399,399,1,flowers/images/281.jpg,flowers/images/394.jpg,400,Yang,001,2020-11-19_13h19.13.650,test1,2020.2.5,MacIntel,60
