key_resp.keys,key_resp.rt,key_resp_3.keys,key_resp_3.rt,key_resp_2.keys,key_resp_2.rt,trials.thisRepN,trials.thisTrialN,trials.thisN,trials.thisIndex,trials.ran,image_left,image_right,trial_num,participant,session,date,expName,psychopyVersion,OS,frameRate,key_resp_4.keys,key_resp_4.rt,trials_2.thisRepN,trials_2.thisTrialN,trials_2.thisN,trials_2.thisIndex,trials_2.ran
space,12.22203,space,12.184965,z,7.66782,0,0,0,0,1,flowers/images/125.jpg,flowers/images/165.jpg,1,YF,001,2020-11-23_23h44.27.081,test1,2020.2.5,MacIntel,60,,,,,,,
,,,,m,1.618815,0,1,1,1,1,flowers/images/168.jpg,flowers/images/195.jpg,2,YF,001,2020-11-23_23h44.27.081,test1,2020.2.5,MacIntel,60,,,,,,,
,,,,m,1.888185,0,2,2,2,1,flowers/images/114.jpg,flowers/images/131.jpg,3,YF,001,2020-11-23_23h44.27.081,test1,2020.2.5,MacIntel,60,,,,,,,
,,,,m,1.540705,0,3,3,3,1,flowers/images/110.jpg,flowers/images/241.jpg,4,YF,001,2020-11-23_23h44.27.081,test1,2020.2.5,MacIntel,60,,,,,,,
,,,,m,1.53879,0,4,4,4,1,flowers/images/157.jpg,flowers/images/170.jpg,5,YF,001,2020-11-23_23h44.27.081,test1,2020.2.5,MacIntel,60,,,,,,,
,,,,z,1.30569,0,5,5,5,1,flowers/images/291.jpg,flowers/images/302.jpg,6,YF,001,2020-11-23_23h44.27.081,test1,2020.2.5,MacIntel,60,,,,,,,
,,,,m,1.84801,0,6,6,6,1,flowers/images/335.jpg,flowers/images/272.jpg,7,YF,001,2020-11-23_23h44.27.081,test1,2020.2.5,MacIntel,60,,,,,,,
,,,,z,1.165305,0,7,7,7,1,flowers/images/122.jpg,flowers/images/72.jpg,8,YF,001,2020-11-23_23h44.27.081,test1,2020.2.5,MacIntel,60,,,,,,,
,,,,m,1.534075,0,8,8,8,1,flowers/images/240.jpg,flowers/images/67.jpg,9,YF,001,2020-11-23_23h44.27.081,test1,2020.2.5,MacIntel,60,,,,,,,
,,,,m,1.656675,0,9,9,9,1,flowers/images/324.jpg,flowers/images/180.jpg,10,YF,001,2020-11-23_23h44.27.081,test1,2020.2.5,MacIntel,60,,,,,,,
,,,,m,1.27395,0,10,10,10,1,flowers/images/148.jpg,flowers/images/275.jpg,11,YF,001,2020-11-23_23h44.27.081,test1,2020.2.5,MacIntel,60,,,,,,,
,,,,z,1.24464,0,11,11,11,1,flowers/images/61.jpg,flowers/images/2.jpg,12,YF,001,2020-11-23_23h44.27.081,test1,2020.2.5,MacIntel,60,,,,,,,
,,,,m,2.175705,0,12,12,12,1,flowers/images/20.jpg,flowers/images/378.jpg,13,YF,001,2020-11-23_23h44.27.081,test1,2020.2.5,MacIntel,60,,,,,,,
,,,,z,1.27338,0,13,13,13,1,flowers/images/181.jpg,flowers/images/363.jpg,14,YF,001,2020-11-23_23h44.27.081,test1,2020.2.5,MacIntel,60,,,,,,,
,,,,m,1.20834,0,14,14,14,1,flowers/images/87.jpg,flowers/images/187.jpg,15,YF,001,2020-11-23_23h44.27.081,test1,2020.2.5,MacIntel,60,,,,,,,
,,,,z,2.065675,0,15,15,15,1,flowers/images/150.jpg,flowers/images/281.jpg,16,YF,001,2020-11-23_23h44.27.081,test1,2020.2.5,MacIntel,60,,,,,,,
,,,,m,1.222635,0,16,16,16,1,flowers/images/112.jpg,flowers/images/176.jpg,17,YF,001,2020-11-23_23h44.27.081,test1,2020.2.5,MacIntel,60,,,,,,,
,,,,m,1.976685,0,17,17,17,1,flowers/images/236.jpg,flowers/images/243.jpg,18,YF,001,2020-11-23_23h44.27.081,test1,2020.2.5,MacIntel,60,,,,,,,
,,,,m,2.926745,0,18,18,18,1,flowers/images/133.jpg,flowers/images/247.jpg,19,YF,001,2020-11-23_23h44.27.081,test1,2020.2.5,MacIntel,60,,,,,,,
,,,,z,1.824045,0,19,19,19,1,flowers/images/136.jpg,flowers/images/164.jpg,20,YF,001,2020-11-23_23h44.27.081,test1,2020.2.5,MacIntel,60,,,,,,,
,,,,z,3.248255,0,20,20,20,1,flowers/images/185.jpg,flowers/images/211.jpg,21,YF,001,2020-11-23_23h44.27.081,test1,2020.2.5,MacIntel,60,,,,,,,
,,,,z,2.04097,0,21,21,21,1,flowers/images/118.jpg,flowers/images/371.jpg,22,YF,001,2020-11-23_23h44.27.081,test1,2020.2.5,MacIntel,60,,,,,,,
,,,,m,1.396505,0,22,22,22,1,flowers/images/177.jpg,flowers/images/5.jpg,23,YF,001,2020-11-23_23h44.27.081,test1,2020.2.5,MacIntel,60,,,,,,,
,,,,m,1.25866,0,23,23,23,1,flowers/images/91.jpg,flowers/images/215.jpg,24,YF,001,2020-11-23_23h44.27.081,test1,2020.2.5,MacIntel,60,,,,,,,
,,,,z,1.77215,0,24,24,24,1,flowers/images/277.jpg,flowers/images/11.jpg,25,YF,001,2020-11-23_23h44.27.081,test1,2020.2.5,MacIntel,60,,,,,,,
,,,,m,2.583355,0,25,25,25,1,flowers/images/197.jpg,flowers/images/25.jpg,26,YF,001,2020-11-23_23h44.27.081,test1,2020.2.5,MacIntel,60,,,,,,,
,,,,m,1.566265,0,26,26,26,1,flowers/images/131.jpg,flowers/images/63.jpg,27,YF,001,2020-11-23_23h44.27.081,test1,2020.2.5,MacIntel,60,,,,,,,
,,,,m,2.9829,0,27,27,27,1,flowers/images/106.jpg,flowers/images/221.jpg,28,YF,001,2020-11-23_23h44.27.081,test1,2020.2.5,MacIntel,60,,,,,,,
,,,,z,2.057835,0,28,28,28,1,flowers/images/295.jpg,flowers/images/307.jpg,29,YF,001,2020-11-23_23h44.27.081,test1,2020.2.5,MacIntel,60,,,,,,,
,,,,m,1.257025,0,29,29,29,1,flowers/images/368.jpg,flowers/images/384.jpg,30,YF,001,2020-11-23_23h44.27.081,test1,2020.2.5,MacIntel,60,,,,,,,
,,,,z,1.789635,0,30,30,30,1,flowers/images/96.jpg,flowers/images/140.jpg,31,YF,001,2020-11-23_23h44.27.081,test1,2020.2.5,MacIntel,60,,,,,,,
,,,,z,1.871835,0,31,31,31,1,flowers/images/272.jpg,flowers/images/59.jpg,32,YF,001,2020-11-23_23h44.27.081,test1,2020.2.5,MacIntel,60,,,,,,,
,,,,z,1.089405,0,32,32,32,1,flowers/images/389.jpg,flowers/images/110.jpg,33,YF,001,2020-11-23_23h44.27.081,test1,2020.2.5,MacIntel,60,,,,,,,
,,,,m,1.47214,0,33,33,33,1,flowers/images/237.jpg,flowers/images/387.jpg,34,YF,001,2020-11-23_23h44.27.081,test1,2020.2.5,MacIntel,60,,,,,,,
,,,,m,2.96026,0,34,34,34,1,flowers/images/35.jpg,flowers/images/142.jpg,35,YF,001,2020-11-23_23h44.27.081,test1,2020.2.5,MacIntel,60,,,,,,,
,,,,m,1.49765,0,35,35,35,1,flowers/images/49.jpg,flowers/images/200.jpg,36,YF,001,2020-11-23_23h44.27.081,test1,2020.2.5,MacIntel,60,,,,,,,
,,,,m,1.84405,0,36,36,36,1,flowers/images/142.jpg,flowers/images/328.jpg,37,YF,001,2020-11-23_23h44.27.081,test1,2020.2.5,MacIntel,60,,,,,,,
,,,,z,1.624395,0,37,37,37,1,flowers/images/339.jpg,flowers/images/264.jpg,38,YF,001,2020-11-23_23h44.27.081,test1,2020.2.5,MacIntel,60,,,,,,,
,,,,m,0.89933,0,38,38,38,1,flowers/images/394.jpg,flowers/images/266.jpg,39,YF,001,2020-11-23_23h44.27.081,test1,2020.2.5,MacIntel,60,,,,,,,
,,,,m,1.7572,0,39,39,39,1,flowers/images/89.jpg,flowers/images/298.jpg,40,YF,001,2020-11-23_23h44.27.081,test1,2020.2.5,MacIntel,60,,,,,,,
,,,,z,1.58963,0,40,40,40,1,flowers/images/325.jpg,flowers/images/47.jpg,41,YF,001,2020-11-23_23h44.27.081,test1,2020.2.5,MacIntel,60,,,,,,,
,,,,m,2.639825,0,41,41,41,1,flowers/images/40.jpg,flowers/images/162.jpg,42,YF,001,2020-11-23_23h44.27.081,test1,2020.2.5,MacIntel,60,,,,,,,
,,,,z,2.54143,0,42,42,42,1,flowers/images/266.jpg,flowers/images/181.jpg,43,YF,001,2020-11-23_23h44.27.081,test1,2020.2.5,MacIntel,60,,,,,,,
,,,,z,1.67812,0,43,43,43,1,flowers/images/100.jpg,flowers/images/396.jpg,44,YF,001,2020-11-23_23h44.27.081,test1,2020.2.5,MacIntel,60,,,,,,,
,,,,m,2.142275,0,44,44,44,1,flowers/images/144.jpg,flowers/images/231.jpg,45,YF,001,2020-11-23_23h44.27.081,test1,2020.2.5,MacIntel,60,,,,,,,
,,,,m,1.84618,0,45,45,45,1,flowers/images/289.jpg,flowers/images/202.jpg,46,YF,001,2020-11-23_23h44.27.081,test1,2020.2.5,MacIntel,60,,,,,,,
,,,,z,1.22826,0,46,46,46,1,flowers/images/178.jpg,flowers/images/86.jpg,47,YF,001,2020-11-23_23h44.27.081,test1,2020.2.5,MacIntel,60,,,,,,,
,,,,z,1.927615,0,47,47,47,1,flowers/images/360.jpg,flowers/images/393.jpg,48,YF,001,2020-11-23_23h44.27.081,test1,2020.2.5,MacIntel,60,,,,,,,
,,,,m,2.72363,0,48,48,48,1,flowers/images/108.jpg,flowers/images/288.jpg,49,YF,001,2020-11-23_23h44.27.081,test1,2020.2.5,MacIntel,60,,,,,,,
,,,,m,1.38905,0,49,49,49,1,flowers/images/165.jpg,flowers/images/154.jpg,50,YF,001,2020-11-23_23h44.27.081,test1,2020.2.5,MacIntel,60,,,,,,,
,,,,m,2.719415,0,50,50,50,1,flowers/images/27.jpg,flowers/images/121.jpg,51,YF,001,2020-11-23_23h44.27.081,test1,2020.2.5,MacIntel,60,,,,,,,
,,,,m,2.095685,0,51,51,51,1,flowers/images/302.jpg,flowers/images/203.jpg,52,YF,001,2020-11-23_23h44.27.081,test1,2020.2.5,MacIntel,60,,,,,,,
,,,,m,1.355335,0,52,52,52,1,flowers/images/255.jpg,flowers/images/42.jpg,53,YF,001,2020-11-23_23h44.27.081,test1,2020.2.5,MacIntel,60,,,,,,,
,,,,z,1.42368,0,53,53,53,1,flowers/images/31.jpg,flowers/images/289.jpg,54,YF,001,2020-11-23_23h44.27.081,test1,2020.2.5,MacIntel,60,,,,,,,
,,,,z,1.428755,0,54,54,54,1,flowers/images/66.jpg,flowers/images/246.jpg,55,YF,001,2020-11-23_23h44.27.081,test1,2020.2.5,MacIntel,60,,,,,,,
,,,,z,2.278805,0,55,55,55,1,flowers/images/355.jpg,flowers/images/115.jpg,56,YF,001,2020-11-23_23h44.27.081,test1,2020.2.5,MacIntel,60,,,,,,,
,,,,m,2.30872,0,56,56,56,1,flowers/images/241.jpg,flowers/images/345.jpg,57,YF,001,2020-11-23_23h44.27.081,test1,2020.2.5,MacIntel,60,,,,,,,
,,,,m,1.67536,0,57,57,57,1,flowers/images/296.jpg,flowers/images/37.jpg,58,YF,001,2020-11-23_23h44.27.081,test1,2020.2.5,MacIntel,60,,,,,,,
,,,,m,1.612645,0,58,58,58,1,flowers/images/235.jpg,flowers/images/373.jpg,59,YF,001,2020-11-23_23h44.27.081,test1,2020.2.5,MacIntel,60,,,,,,,
,,,,z,1.941995,0,59,59,59,1,flowers/images/173.jpg,flowers/images/93.jpg,60,YF,001,2020-11-23_23h44.27.081,test1,2020.2.5,MacIntel,60,,,,,,,
,,,,z,2.223825,0,60,60,60,1,flowers/images/331.jpg,flowers/images/88.jpg,61,YF,001,2020-11-23_23h44.27.081,test1,2020.2.5,MacIntel,60,,,,,,,
,,,,m,2.725365,0,61,61,61,1,flowers/images/134.jpg,flowers/images/127.jpg,62,YF,001,2020-11-23_23h44.27.081,test1,2020.2.5,MacIntel,60,,,,,,,
,,,,z,1.65795,0,62,62,62,1,flowers/images/285.jpg,flowers/images/201.jpg,63,YF,001,2020-11-23_23h44.27.081,test1,2020.2.5,MacIntel,60,,,,,,,
,,,,z,1.596745,0,63,63,63,1,flowers/images/151.jpg,flowers/images/52.jpg,64,YF,001,2020-11-23_23h44.27.081,test1,2020.2.5,MacIntel,60,,,,,,,
,,,,z,1.84235,0,64,64,64,1,flowers/images/208.jpg,flowers/images/186.jpg,65,YF,001,2020-11-23_23h44.27.081,test1,2020.2.5,MacIntel,60,,,,,,,
,,,,z,1.473595,0,65,65,65,1,flowers/images/80.jpg,flowers/images/124.jpg,66,YF,001,2020-11-23_23h44.27.081,test1,2020.2.5,MacIntel,60,,,,,,,
,,,,m,2.010625,0,66,66,66,1,flowers/images/303.jpg,flowers/images/347.jpg,67,YF,001,2020-11-23_23h44.27.081,test1,2020.2.5,MacIntel,60,,,,,,,
,,,,m,2.17519,0,67,67,67,1,flowers/images/6.jpg,flowers/images/262.jpg,68,YF,001,2020-11-23_23h44.27.081,test1,2020.2.5,MacIntel,60,,,,,,,
,,,,z,2.009985,0,68,68,68,1,flowers/images/85.jpg,flowers/images/20.jpg,69,YF,001,2020-11-23_23h44.27.081,test1,2020.2.5,MacIntel,60,,,,,,,
,,,,m,3.542925,0,69,69,69,1,flowers/images/392.jpg,flowers/images/15.jpg,70,YF,001,2020-11-23_23h44.27.081,test1,2020.2.5,MacIntel,60,,,,,,,
,,,,m,1.48001,0,70,70,70,1,flowers/images/341.jpg,flowers/images/357.jpg,71,YF,001,2020-11-23_23h44.27.081,test1,2020.2.5,MacIntel,60,,,,,,,
,,,,m,2.542835,0,71,71,71,1,flowers/images/293.jpg,flowers/images/158.jpg,72,YF,001,2020-11-23_23h44.27.081,test1,2020.2.5,MacIntel,60,,,,,,,
,,,,z,1.209965,0,72,72,72,1,flowers/images/390.jpg,flowers/images/58.jpg,73,YF,001,2020-11-23_23h44.27.081,test1,2020.2.5,MacIntel,60,,,,,,,
,,,,z,2.47755,0,73,73,73,1,flowers/images/82.jpg,flowers/images/16.jpg,74,YF,001,2020-11-23_23h44.27.081,test1,2020.2.5,MacIntel,60,,,,,,,
,,,,m,1.475275,0,74,74,74,1,flowers/images/336.jpg,flowers/images/130.jpg,75,YF,001,2020-11-23_23h44.27.081,test1,2020.2.5,MacIntel,60,,,,,,,
,,,,z,2.241505,0,75,75,75,1,flowers/images/160.jpg,flowers/images/105.jpg,76,YF,001,2020-11-23_23h44.27.081,test1,2020.2.5,MacIntel,60,,,,,,,
,,,,z,5.29303,0,76,76,76,1,flowers/images/328.jpg,flowers/images/305.jpg,77,YF,001,2020-11-23_23h44.27.081,test1,2020.2.5,MacIntel,60,,,,,,,
,,,,z,3.07611,0,77,77,77,1,flowers/images/180.jpg,flowers/images/249.jpg,78,YF,001,2020-11-23_23h44.27.081,test1,2020.2.5,MacIntel,60,,,,,,,
,,,,z,1.44008,0,78,78,78,1,flowers/images/169.jpg,flowers/images/94.jpg,79,YF,001,2020-11-23_23h44.27.081,test1,2020.2.5,MacIntel,60,,,,,,,
,,,,m,1.97723,0,79,79,79,1,flowers/images/145.jpg,flowers/images/277.jpg,80,YF,001,2020-11-23_23h44.27.081,test1,2020.2.5,MacIntel,60,,,,,,,
,,,,z,1.063145,0,80,80,80,1,flowers/images/358.jpg,flowers/images/197.jpg,81,YF,001,2020-11-23_23h44.27.081,test1,2020.2.5,MacIntel,60,,,,,,,
,,,,z,1.29074,0,81,81,81,1,flowers/images/71.jpg,flowers/images/128.jpg,82,YF,001,2020-11-23_23h44.27.081,test1,2020.2.5,MacIntel,60,,,,,,,
,,,,z,1.336915,0,82,82,82,1,flowers/images/192.jpg,flowers/images/379.jpg,83,YF,001,2020-11-23_23h44.27.081,test1,2020.2.5,MacIntel,60,,,,,,,
,,,,z,2.7577,0,83,83,83,1,flowers/images/189.jpg,flowers/images/271.jpg,84,YF,001,2020-11-23_23h44.27.081,test1,2020.2.5,MacIntel,60,,,,,,,
,,,,m,1.481515,0,84,84,84,1,flowers/images/15.jpg,flowers/images/28.jpg,85,YF,001,2020-11-23_23h44.27.081,test1,2020.2.5,MacIntel,60,,,,,,,
,,,,m,2.941365,0,85,85,85,1,flowers/images/171.jpg,flowers/images/97.jpg,86,YF,001,2020-11-23_23h44.27.081,test1,2020.2.5,MacIntel,60,,,,,,,
,,,,m,2.798955,0,86,86,86,1,flowers/images/287.jpg,flowers/images/29.jpg,87,YF,001,2020-11-23_23h44.27.081,test1,2020.2.5,MacIntel,60,,,,,,,
,,,,z,3.40814,0,87,87,87,1,flowers/images/381.jpg,flowers/images/356.jpg,88,YF,001,2020-11-23_23h44.27.081,test1,2020.2.5,MacIntel,60,,,,,,,
,,,,z,3.32763,0,88,88,88,1,flowers/images/76.jpg,flowers/images/10.jpg,89,YF,001,2020-11-23_23h44.27.081,test1,2020.2.5,MacIntel,60,,,,,,,
,,,,z,2.76709,0,89,89,89,1,flowers/images/239.jpg,flowers/images/226.jpg,90,YF,001,2020-11-23_23h44.27.081,test1,2020.2.5,MacIntel,60,,,,,,,
,,,,m,2.180405,0,90,90,90,1,flowers/images/398.jpg,flowers/images/368.jpg,91,YF,001,2020-11-23_23h44.27.081,test1,2020.2.5,MacIntel,60,,,,,,,
,,,,m,2.040385,0,91,91,91,1,flowers/images/21.jpg,flowers/images/53.jpg,92,YF,001,2020-11-23_23h44.27.081,test1,2020.2.5,MacIntel,60,,,,,,,
,,,,m,2.499275,0,92,92,92,1,flowers/images/352.jpg,flowers/images/230.jpg,93,YF,001,2020-11-23_23h44.27.081,test1,2020.2.5,MacIntel,60,,,,,,,
,,,,z,1.505655,0,93,93,93,1,flowers/images/54.jpg,flowers/images/280.jpg,94,YF,001,2020-11-23_23h44.27.081,test1,2020.2.5,MacIntel,60,,,,,,,
,,,,m,1.293355,0,94,94,94,1,flowers/images/259.jpg,flowers/images/184.jpg,95,YF,001,2020-11-23_23h44.27.081,test1,2020.2.5,MacIntel,60,,,,,,,
,,,,z,1.25415,0,95,95,95,1,flowers/images/7.jpg,flowers/images/137.jpg,96,YF,001,2020-11-23_23h44.27.081,test1,2020.2.5,MacIntel,60,,,,,,,
,,,,z,1.723485,0,96,96,96,1,flowers/images/292.jpg,flowers/images/364.jpg,97,YF,001,2020-11-23_23h44.27.081,test1,2020.2.5,MacIntel,60,,,,,,,
,,,,z,2.841105,0,97,97,97,1,flowers/images/84.jpg,flowers/images/245.jpg,98,YF,001,2020-11-23_23h44.27.081,test1,2020.2.5,MacIntel,60,,,,,,,
,,,,m,3.132085,0,98,98,98,1,flowers/images/141.jpg,flowers/images/183.jpg,99,YF,001,2020-11-23_23h44.27.081,test1,2020.2.5,MacIntel,60,,,,,,,
,,,,z,1.48292,0,99,99,99,1,flowers/images/45.jpg,flowers/images/375.jpg,100,YF,001,2020-11-23_23h44.27.081,test1,2020.2.5,MacIntel,60,,,,,,,
,,,,m,1.1234,0,100,100,100,1,flowers/images/111.jpg,flowers/images/395.jpg,101,YF,001,2020-11-23_23h44.27.081,test1,2020.2.5,MacIntel,60,,,,,,,
,,,,m,2.31606,0,101,101,101,1,flowers/images/46.jpg,flowers/images/360.jpg,102,YF,001,2020-11-23_23h44.27.081,test1,2020.2.5,MacIntel,60,,,,,,,
,,,,z,2.522645,0,102,102,102,1,flowers/images/399.jpg,flowers/images/4.jpg,103,YF,001,2020-11-23_23h44.27.081,test1,2020.2.5,MacIntel,60,,,,,,,
,,,,m,1.65464,0,103,103,103,1,flowers/images/250.jpg,flowers/images/113.jpg,104,YF,001,2020-11-23_23h44.27.081,test1,2020.2.5,MacIntel,60,,,,,,,
,,,,m,1.774275,0,104,104,104,1,flowers/images/359.jpg,flowers/images/283.jpg,105,YF,001,2020-11-23_23h44.27.081,test1,2020.2.5,MacIntel,60,,,,,,,
,,,,m,1.523465,0,105,105,105,1,flowers/images/209.jpg,flowers/images/309.jpg,106,YF,001,2020-11-23_23h44.27.081,test1,2020.2.5,MacIntel,60,,,,,,,
,,,,z,6.31836,0,106,106,106,1,flowers/images/219.jpg,flowers/images/285.jpg,107,YF,001,2020-11-23_23h44.27.081,test1,2020.2.5,MacIntel,60,,,,,,,
,,,,m,2.42784,0,107,107,107,1,flowers/images/159.jpg,flowers/images/377.jpg,108,YF,001,2020-11-23_23h44.27.081,test1,2020.2.5,MacIntel,60,,,,,,,
,,,,z,1.727615,0,108,108,108,1,flowers/images/17.jpg,flowers/images/365.jpg,109,YF,001,2020-11-23_23h44.27.081,test1,2020.2.5,MacIntel,60,,,,,,,
,,,,z,7.065065,0,109,109,109,1,flowers/images/247.jpg,flowers/images/14.jpg,110,YF,001,2020-11-23_23h44.27.081,test1,2020.2.5,MacIntel,60,,,,,,,
,,,,z,2.81097,0,110,110,110,1,flowers/images/357.jpg,flowers/images/229.jpg,111,YF,001,2020-11-23_23h44.27.081,test1,2020.2.5,MacIntel,60,,,,,,,
,,,,m,1.45641,0,111,111,111,1,flowers/images/378.jpg,flowers/images/299.jpg,112,YF,001,2020-11-23_23h44.27.081,test1,2020.2.5,MacIntel,60,,,,,,,
,,,,m,1.339005,0,112,112,112,1,flowers/images/191.jpg,flowers/images/304.jpg,113,YF,001,2020-11-23_23h44.27.081,test1,2020.2.5,MacIntel,60,,,,,,,
,,,,m,1.450385,0,113,113,113,1,flowers/images/195.jpg,flowers/images/44.jpg,114,YF,001,2020-11-23_23h44.27.081,test1,2020.2.5,MacIntel,60,,,,,,,
,,,,m,2.229485,0,114,114,114,1,flowers/images/126.jpg,flowers/images/161.jpg,115,YF,001,2020-11-23_23h44.27.081,test1,2020.2.5,MacIntel,60,,,,,,,
,,,,z,1.665745,0,115,115,115,1,flowers/images/340.jpg,flowers/images/178.jpg,116,YF,001,2020-11-23_23h44.27.081,test1,2020.2.5,MacIntel,60,,,,,,,
,,,,z,1.908385,0,116,116,116,1,flowers/images/201.jpg,flowers/images/21.jpg,117,YF,001,2020-11-23_23h44.27.081,test1,2020.2.5,MacIntel,60,,,,,,,
,,,,m,1.160025,0,117,117,117,1,flowers/images/307.jpg,flowers/images/122.jpg,118,YF,001,2020-11-23_23h44.27.081,test1,2020.2.5,MacIntel,60,,,,,,,
,,,,m,1.088195,0,118,118,118,1,flowers/images/194.jpg,flowers/images/23.jpg,119,YF,001,2020-11-23_23h44.27.081,test1,2020.2.5,MacIntel,60,,,,,,,
,,,,z,1.475825,0,119,119,119,1,flowers/images/318.jpg,flowers/images/293.jpg,120,YF,001,2020-11-23_23h44.27.081,test1,2020.2.5,MacIntel,60,,,,,,,
,,,,m,1.8306,0,120,120,120,1,flowers/images/69.jpg,flowers/images/327.jpg,121,YF,001,2020-11-23_23h44.27.081,test1,2020.2.5,MacIntel,60,,,,,,,
,,,,m,1.47258,0,121,121,121,1,flowers/images/98.jpg,flowers/images/208.jpg,122,YF,001,2020-11-23_23h44.27.081,test1,2020.2.5,MacIntel,60,,,,,,,
,,,,z,1.46787,0,122,122,122,1,flowers/images/184.jpg,flowers/images/96.jpg,123,YF,001,2020-11-23_23h44.27.081,test1,2020.2.5,MacIntel,60,,,,,,,
,,,,z,0.933265,0,123,123,123,1,flowers/images/44.jpg,flowers/images/317.jpg,124,YF,001,2020-11-23_23h44.27.081,test1,2020.2.5,MacIntel,60,,,,,,,
,,,,z,1.34288,0,124,124,124,1,flowers/images/222.jpg,flowers/images/9.jpg,125,YF,001,2020-11-23_23h44.27.081,test1,2020.2.5,MacIntel,60,,,,,,,
,,,,z,4.491775,0,125,125,125,1,flowers/images/218.jpg,flowers/images/153.jpg,126,YF,001,2020-11-23_23h44.27.081,test1,2020.2.5,MacIntel,60,,,,,,,
,,,,z,1.379015,0,126,126,126,1,flowers/images/275.jpg,flowers/images/295.jpg,127,YF,001,2020-11-23_23h44.27.081,test1,2020.2.5,MacIntel,60,,,,,,,
,,,,m,1.875935,0,127,127,127,1,flowers/images/172.jpg,flowers/images/34.jpg,128,YF,001,2020-11-23_23h44.27.081,test1,2020.2.5,MacIntel,60,,,,,,,
,,,,m,1.47849,0,128,128,128,1,flowers/images/345.jpg,flowers/images/89.jpg,129,YF,001,2020-11-23_23h44.27.081,test1,2020.2.5,MacIntel,60,,,,,,,
,,,,m,5.26219,0,129,129,129,1,flowers/images/334.jpg,flowers/images/376.jpg,130,YF,001,2020-11-23_23h44.27.081,test1,2020.2.5,MacIntel,60,,,,,,,
,,,,z,1.899915,0,130,130,130,1,flowers/images/93.jpg,flowers/images/6.jpg,131,YF,001,2020-11-23_23h44.27.081,test1,2020.2.5,MacIntel,60,,,,,,,
,,,,z,3.032915,0,131,131,131,1,flowers/images/183.jpg,flowers/images/76.jpg,132,YF,001,2020-11-23_23h44.27.081,test1,2020.2.5,MacIntel,60,,,,,,,
,,,,z,1.004135,0,132,132,132,1,flowers/images/304.jpg,flowers/images/224.jpg,133,YF,001,2020-11-23_23h44.27.081,test1,2020.2.5,MacIntel,60,,,,,,,
,,,,m,1.41194,0,133,133,133,1,flowers/images/330.jpg,flowers/images/81.jpg,134,YF,001,2020-11-23_23h44.27.081,test1,2020.2.5,MacIntel,60,,,,,,,
,,,,m,1.722045,0,134,134,134,1,flowers/images/147.jpg,flowers/images/36.jpg,135,YF,001,2020-11-23_23h44.27.081,test1,2020.2.5,MacIntel,60,,,,,,,
,,,,m,2.15881,0,135,135,135,1,flowers/images/62.jpg,flowers/images/321.jpg,136,YF,001,2020-11-23_23h44.27.081,test1,2020.2.5,MacIntel,60,,,,,,,
,,,,z,2.141155,0,136,136,136,1,flowers/images/367.jpg,flowers/images/311.jpg,137,YF,001,2020-11-23_23h44.27.081,test1,2020.2.5,MacIntel,60,,,,,,,
,,,,z,1.58123,0,137,137,137,1,flowers/images/326.jpg,flowers/images/7.jpg,138,YF,001,2020-11-23_23h44.27.081,test1,2020.2.5,MacIntel,60,,,,,,,
,,,,m,1.70832,0,138,138,138,1,flowers/images/28.jpg,flowers/images/382.jpg,139,YF,001,2020-11-23_23h44.27.081,test1,2020.2.5,MacIntel,60,,,,,,,
,,,,z,1.47359,0,139,139,139,1,flowers/images/156.jpg,flowers/images/152.jpg,140,YF,001,2020-11-23_23h44.27.081,test1,2020.2.5,MacIntel,60,,,,,,,
,,,,m,1.30549,0,140,140,140,1,flowers/images/113.jpg,flowers/images/167.jpg,141,YF,001,2020-11-23_23h44.27.081,test1,2020.2.5,MacIntel,60,,,,,,,
,,,,z,1.607395,0,141,141,141,1,flowers/images/155.jpg,flowers/images/342.jpg,142,YF,001,2020-11-23_23h44.27.081,test1,2020.2.5,MacIntel,60,,,,,,,
,,,,z,1.84855,0,142,142,142,1,flowers/images/213.jpg,flowers/images/353.jpg,143,YF,001,2020-11-23_23h44.27.081,test1,2020.2.5,MacIntel,60,,,,,,,
,,,,m,2.045965,0,143,143,143,1,flowers/images/298.jpg,flowers/images/90.jpg,144,YF,001,2020-11-23_23h44.27.081,test1,2020.2.5,MacIntel,60,,,,,,,
,,,,m,1.80826,0,144,144,144,1,flowers/images/217.jpg,flowers/images/240.jpg,145,YF,001,2020-11-23_23h44.27.081,test1,2020.2.5,MacIntel,60,,,,,,,
,,,,z,2.01689,0,145,145,145,1,flowers/images/97.jpg,flowers/images/133.jpg,146,YF,001,2020-11-23_23h44.27.081,test1,2020.2.5,MacIntel,60,,,,,,,
,,,,z,1.730665,0,146,146,146,1,flowers/images/354.jpg,flowers/images/310.jpg,147,YF,001,2020-11-23_23h44.27.081,test1,2020.2.5,MacIntel,60,,,,,,,
,,,,z,3.7301,0,147,147,147,1,flowers/images/377.jpg,flowers/images/273.jpg,148,YF,001,2020-11-23_23h44.27.081,test1,2020.2.5,MacIntel,60,,,,,,,
,,,,z,1.15571,0,148,148,148,1,flowers/images/121.jpg,flowers/images/294.jpg,149,YF,001,2020-11-23_23h44.27.081,test1,2020.2.5,MacIntel,60,,,,,,,
,,,,z,2.06646,0,149,149,149,1,flowers/images/14.jpg,flowers/images/101.jpg,150,YF,001,2020-11-23_23h44.27.081,test1,2020.2.5,MacIntel,60,,,,,,,
,,,,m,1.18487,0,150,150,150,1,flowers/images/321.jpg,flowers/images/51.jpg,151,YF,001,2020-11-23_23h44.27.081,test1,2020.2.5,MacIntel,60,,,,,,,
,,,,m,1.455445,0,151,151,151,1,flowers/images/362.jpg,flowers/images/175.jpg,152,YF,001,2020-11-23_23h44.27.081,test1,2020.2.5,MacIntel,60,,,,,,,
,,,,z,1.74502,0,152,152,152,1,flowers/images/203.jpg,flowers/images/248.jpg,153,YF,001,2020-11-23_23h44.27.081,test1,2020.2.5,MacIntel,60,,,,,,,
,,,,z,1.42715,0,153,153,153,1,flowers/images/12.jpg,flowers/images/300.jpg,154,YF,001,2020-11-23_23h44.27.081,test1,2020.2.5,MacIntel,60,,,,,,,
,,,,z,1.789935,0,154,154,154,1,flowers/images/365.jpg,flowers/images/218.jpg,155,YF,001,2020-11-23_23h44.27.081,test1,2020.2.5,MacIntel,60,,,,,,,
,,,,z,2.145055,0,155,155,155,1,flowers/images/75.jpg,flowers/images/109.jpg,156,YF,001,2020-11-23_23h44.27.081,test1,2020.2.5,MacIntel,60,,,,,,,
,,,,m,1.690225,0,156,156,156,1,flowers/images/127.jpg,flowers/images/333.jpg,157,YF,001,2020-11-23_23h44.27.081,test1,2020.2.5,MacIntel,60,,,,,,,
,,,,z,3.172365,0,157,157,157,1,flowers/images/258.jpg,flowers/images/135.jpg,158,YF,001,2020-11-23_23h44.27.081,test1,2020.2.5,MacIntel,60,,,,,,,
,,,,z,1.633865,0,158,158,158,1,flowers/images/343.jpg,flowers/images/65.jpg,159,YF,001,2020-11-23_23h44.27.081,test1,2020.2.5,MacIntel,60,,,,,,,
,,,,z,1.9732,0,159,159,159,1,flowers/images/58.jpg,flowers/images/138.jpg,160,YF,001,2020-11-23_23h44.27.081,test1,2020.2.5,MacIntel,60,,,,,,,
,,,,m,1.478955,0,160,160,160,1,flowers/images/94.jpg,flowers/images/234.jpg,161,YF,001,2020-11-23_23h44.27.081,test1,2020.2.5,MacIntel,60,,,,,,,
,,,,m,1.61506,0,161,161,161,1,flowers/images/379.jpg,flowers/images/207.jpg,162,YF,001,2020-11-23_23h44.27.081,test1,2020.2.5,MacIntel,60,,,,,,,
,,,,z,1.831535,0,162,162,162,1,flowers/images/128.jpg,flowers/images/79.jpg,163,YF,001,2020-11-23_23h44.27.081,test1,2020.2.5,MacIntel,60,,,,,,,
,,,,m,1.969165,0,163,163,163,1,flowers/images/47.jpg,flowers/images/85.jpg,164,YF,001,2020-11-23_23h44.27.081,test1,2020.2.5,MacIntel,60,,,,,,,
,,,,m,1.74699,0,164,164,164,1,flowers/images/19.jpg,flowers/images/191.jpg,165,YF,001,2020-11-23_23h44.27.081,test1,2020.2.5,MacIntel,60,,,,,,,
,,,,m,5.965645,0,165,165,165,1,flowers/images/32.jpg,flowers/images/259.jpg,166,YF,001,2020-11-23_23h44.27.081,test1,2020.2.5,MacIntel,60,,,,,,,
,,,,m,1.14886,0,166,166,166,1,flowers/images/323.jpg,flowers/images/284.jpg,167,YF,001,2020-11-23_23h44.27.081,test1,2020.2.5,MacIntel,60,,,,,,,
,,,,m,2.40728,0,167,167,167,1,flowers/images/395.jpg,flowers/images/348.jpg,168,YF,001,2020-11-23_23h44.27.081,test1,2020.2.5,MacIntel,60,,,,,,,
,,,,m,1.358105,0,168,168,168,1,flowers/images/279.jpg,flowers/images/370.jpg,169,YF,001,2020-11-23_23h44.27.081,test1,2020.2.5,MacIntel,60,,,,,,,
,,,,z,1.864875,0,169,169,169,1,flowers/images/264.jpg,flowers/images/125.jpg,170,YF,001,2020-11-23_23h44.27.081,test1,2020.2.5,MacIntel,60,,,,,,,
,,,,m,1.95678,0,170,170,170,1,flowers/images/77.jpg,flowers/images/318.jpg,171,YF,001,2020-11-23_23h44.27.081,test1,2020.2.5,MacIntel,60,,,,,,,
,,,,m,1.69435,0,171,171,171,1,flowers/images/376.jpg,flowers/images/242.jpg,172,YF,001,2020-11-23_23h44.27.081,test1,2020.2.5,MacIntel,60,,,,,,,
,,,,z,1.534895,0,172,172,172,1,flowers/images/351.jpg,flowers/images/132.jpg,173,YF,001,2020-11-23_23h44.27.081,test1,2020.2.5,MacIntel,60,,,,,,,
,,,,m,3.107995,0,173,173,173,1,flowers/images/305.jpg,flowers/images/252.jpg,174,YF,001,2020-11-23_23h44.27.081,test1,2020.2.5,MacIntel,60,,,,,,,
,,,,z,1.290785,0,174,174,174,1,flowers/images/29.jpg,flowers/images/217.jpg,175,YF,001,2020-11-23_23h44.27.081,test1,2020.2.5,MacIntel,60,,,,,,,
,,,,m,1.464515,0,175,175,175,1,flowers/images/3.jpg,flowers/images/228.jpg,176,YF,001,2020-11-23_23h44.27.081,test1,2020.2.5,MacIntel,60,,,,,,,
,,,,m,1.77428,0,176,176,176,1,flowers/images/199.jpg,flowers/images/330.jpg,177,YF,001,2020-11-23_23h44.27.081,test1,2020.2.5,MacIntel,60,,,,,,,
,,,,z,1.94312,0,177,177,177,1,flowers/images/274.jpg,flowers/images/179.jpg,178,YF,001,2020-11-23_23h44.27.081,test1,2020.2.5,MacIntel,60,,,,,,,
,,,,m,2.541005,0,178,178,178,1,flowers/images/346.jpg,flowers/images/290.jpg,179,YF,001,2020-11-23_23h44.27.081,test1,2020.2.5,MacIntel,60,,,,,,,
,,,,m,2.456605,0,179,179,179,1,flowers/images/56.jpg,flowers/images/204.jpg,180,YF,001,2020-11-23_23h44.27.081,test1,2020.2.5,MacIntel,60,,,,,,,
,,,,m,1.632035,0,180,180,180,1,flowers/images/179.jpg,flowers/images/114.jpg,181,YF,001,2020-11-23_23h44.27.081,test1,2020.2.5,MacIntel,60,,,,,,,
,,,,m,1.95851,0,181,181,181,1,flowers/images/36.jpg,flowers/images/223.jpg,182,YF,001,2020-11-23_23h44.27.081,test1,2020.2.5,MacIntel,60,,,,,,,
,,,,m,3.85837,0,182,182,182,1,flowers/images/344.jpg,flowers/images/168.jpg,183,YF,001,2020-11-23_23h44.27.081,test1,2020.2.5,MacIntel,60,,,,,,,
,,,,z,6.6617,0,183,183,183,1,flowers/images/153.jpg,flowers/images/22.jpg,184,YF,001,2020-11-23_23h44.27.081,test1,2020.2.5,MacIntel,60,,,,,,,
,,,,z,2.03416,0,184,184,184,1,flowers/images/39.jpg,flowers/images/323.jpg,185,YF,001,2020-11-23_23h44.27.081,test1,2020.2.5,MacIntel,60,,,,,,,
,,,,m,3.02459,0,185,185,185,1,flowers/images/327.jpg,flowers/images/349.jpg,186,YF,001,2020-11-23_23h44.27.081,test1,2020.2.5,MacIntel,60,,,,,,,
,,,,m,2.317725,0,186,186,186,1,flowers/images/81.jpg,flowers/images/30.jpg,187,YF,001,2020-11-23_23h44.27.081,test1,2020.2.5,MacIntel,60,,,,,,,
,,,,z,1.994345,0,187,187,187,1,flowers/images/42.jpg,flowers/images/107.jpg,188,YF,001,2020-11-23_23h44.27.081,test1,2020.2.5,MacIntel,60,,,,,,,
,,,,z,1.755765,0,188,188,188,1,flowers/images/18.jpg,flowers/images/358.jpg,189,YF,001,2020-11-23_23h44.27.081,test1,2020.2.5,MacIntel,60,,,,,,,
,,,,z,2.779045,0,189,189,189,1,flowers/images/200.jpg,flowers/images/385.jpg,190,YF,001,2020-11-23_23h44.27.081,test1,2020.2.5,MacIntel,60,,,,,,,
,,,,m,1.98985,0,190,190,190,1,flowers/images/369.jpg,flowers/images/233.jpg,191,YF,001,2020-11-23_23h44.27.081,test1,2020.2.5,MacIntel,60,,,,,,,
,,,,m,1.87358,0,191,191,191,1,flowers/images/309.jpg,flowers/images/320.jpg,192,YF,001,2020-11-23_23h44.27.081,test1,2020.2.5,MacIntel,60,,,,,,,
,,,,m,2.53291,0,192,192,192,1,flowers/images/64.jpg,flowers/images/303.jpg,193,YF,001,2020-11-23_23h44.27.081,test1,2020.2.5,MacIntel,60,,,,,,,
,,,,m,3.56884,0,193,193,193,1,flowers/images/86.jpg,flowers/images/216.jpg,194,YF,001,2020-11-23_23h44.27.081,test1,2020.2.5,MacIntel,60,,,,,,,
,,,,z,1.943745,0,194,194,194,1,flowers/images/260.jpg,flowers/images/361.jpg,195,YF,001,2020-11-23_23h44.27.081,test1,2020.2.5,MacIntel,60,,,,,,,
,,,,m,1.140505,0,195,195,195,1,flowers/images/9.jpg,flowers/images/173.jpg,196,YF,001,2020-11-23_23h44.27.081,test1,2020.2.5,MacIntel,60,,,,,,,
,,,,z,3.14424,0,196,196,196,1,flowers/images/22.jpg,flowers/images/41.jpg,197,YF,001,2020-11-23_23h44.27.081,test1,2020.2.5,MacIntel,60,,,,,,,
,,,,m,1.625605,0,197,197,197,1,flowers/images/214.jpg,flowers/images/145.jpg,198,YF,001,2020-11-23_23h44.27.081,test1,2020.2.5,MacIntel,60,,,,,,,
,,,,m,1.941165,0,198,198,198,1,flowers/images/72.jpg,flowers/images/308.jpg,199,YF,001,2020-11-23_23h44.27.081,test1,2020.2.5,MacIntel,60,,,,,,,
,,,,z,2.845715,0,199,199,199,1,flowers/images/34.jpg,flowers/images/237.jpg,200,YF,001,2020-11-23_23h44.27.081,test1,2020.2.5,MacIntel,60,,,,,,,
,,,,m,1.76322,,,,,,flowers/images/166.jpg,flowers/images/169.jpg,1,YF,001,2020-11-23_23h44.27.081,test1,2020.2.5,MacIntel,60,space,14.08554,0,0,0,0,1
,,,,m,6.200785,,,,,,flowers/images/161.jpg,flowers/images/68.jpg,2,YF,001,2020-11-23_23h44.27.081,test1,2020.2.5,MacIntel,60,,,0,1,1,1,1
,,,,m,1.35875,,,,,,flowers/images/319.jpg,flowers/images/341.jpg,3,YF,001,2020-11-23_23h44.27.081,test1,2020.2.5,MacIntel,60,,,0,2,2,2,1
,,,,m,5.48153,,,,,,flowers/images/322.jpg,flowers/images/111.jpg,4,YF,001,2020-11-23_23h44.27.081,test1,2020.2.5,MacIntel,60,,,0,3,3,3,1
,,,,z,2.72649,,,,,,flowers/images/2.jpg,flowers/images/95.jpg,5,YF,001,2020-11-23_23h44.27.081,test1,2020.2.5,MacIntel,60,,,0,4,4,4,1
,,,,m,1.24106,,,,,,flowers/images/276.jpg,flowers/images/66.jpg,6,YF,001,2020-11-23_23h44.27.081,test1,2020.2.5,MacIntel,60,,,0,5,5,5,1
,,,,z,1.25652,,,,,,flowers/images/116.jpg,flowers/images/206.jpg,7,YF,001,2020-11-23_23h44.27.081,test1,2020.2.5,MacIntel,60,,,0,6,6,6,1
,,,,z,3.005025,,,,,,flowers/images/282.jpg,flowers/images/314.jpg,8,YF,001,2020-11-23_23h44.27.081,test1,2020.2.5,MacIntel,60,,,0,7,7,7,1
,,,,z,7.513895,,,,,,flowers/images/261.jpg,flowers/images/260.jpg,9,YF,001,2020-11-23_23h44.27.081,test1,2020.2.5,MacIntel,60,,,0,8,8,8,1
,,,,m,2.82228,,,,,,flowers/images/353.jpg,flowers/images/151.jpg,10,YF,001,2020-11-23_23h44.27.081,test1,2020.2.5,MacIntel,60,,,0,9,9,9,1
,,,,z,3.36266,,,,,,flowers/images/216.jpg,flowers/images/156.jpg,11,YF,001,2020-11-23_23h44.27.081,test1,2020.2.5,MacIntel,60,,,0,10,10,10,1
,,,,z,2.13393,,,,,,flowers/images/320.jpg,flowers/images/292.jpg,12,YF,001,2020-11-23_23h44.27.081,test1,2020.2.5,MacIntel,60,,,0,11,11,11,1
,,,,z,2.42313,,,,,,flowers/images/149.jpg,flowers/images/279.jpg,13,YF,001,2020-11-23_23h44.27.081,test1,2020.2.5,MacIntel,60,,,0,12,12,12,1
,,,,m,1.454475,,,,,,flowers/images/163.jpg,flowers/images/219.jpg,14,YF,001,2020-11-23_23h44.27.081,test1,2020.2.5,MacIntel,60,,,0,13,13,13,1
,,,,m,2.074825,,,,,,flowers/images/10.jpg,flowers/images/232.jpg,15,YF,001,2020-11-23_23h44.27.081,test1,2020.2.5,MacIntel,60,,,0,14,14,14,1
,,,,m,1.579625,,,,,,flowers/images/55.jpg,flowers/images/73.jpg,16,YF,001,2020-11-23_23h44.27.081,test1,2020.2.5,MacIntel,60,,,0,15,15,15,1
,,,,m,1.51855,,,,,,flowers/images/123.jpg,flowers/images/189.jpg,17,YF,001,2020-11-23_23h44.27.081,test1,2020.2.5,MacIntel,60,,,0,16,16,16,1
,,,,m,1.70721,,,,,,flowers/images/37.jpg,flowers/images/254.jpg,18,YF,001,2020-11-23_23h44.27.081,test1,2020.2.5,MacIntel,60,,,0,17,17,17,1
,,,,z,2.04278,,,,,,flowers/images/230.jpg,flowers/images/166.jpg,19,YF,001,2020-11-23_23h44.27.081,test1,2020.2.5,MacIntel,60,,,0,18,18,18,1
,,,,z,1.47843,,,,,,flowers/images/338.jpg,flowers/images/33.jpg,20,YF,001,2020-11-23_23h44.27.081,test1,2020.2.5,MacIntel,60,,,0,19,19,19,1
,,,,m,1.856525,,,,,,flowers/images/337.jpg,flowers/images/193.jpg,21,YF,001,2020-11-23_23h44.27.081,test1,2020.2.5,MacIntel,60,,,0,20,20,20,1
,,,,m,3.23103,,,,,,flowers/images/83.jpg,flowers/images/339.jpg,22,YF,001,2020-11-23_23h44.27.081,test1,2020.2.5,MacIntel,60,,,0,21,21,21,1
,,,,m,2.22785,,,,,,flowers/images/190.jpg,flowers/images/99.jpg,23,YF,001,2020-11-23_23h44.27.081,test1,2020.2.5,MacIntel,60,,,0,22,22,22,1
,,,,z,1.92393,,,,,,flowers/images/257.jpg,flowers/images/369.jpg,24,YF,001,2020-11-23_23h44.27.081,test1,2020.2.5,MacIntel,60,,,0,23,23,23,1
,,,,m,1.948285,,,,,,flowers/images/280.jpg,flowers/images/355.jpg,25,YF,001,2020-11-23_23h44.27.081,test1,2020.2.5,MacIntel,60,,,0,24,24,24,1
,,,,m,2.281955,,,,,,flowers/images/105.jpg,flowers/images/338.jpg,26,YF,001,2020-11-23_23h44.27.081,test1,2020.2.5,MacIntel,60,,,0,25,25,25,1
,,,,z,1.71589,,,,,,flowers/images/202.jpg,flowers/images/3.jpg,27,YF,001,2020-11-23_23h44.27.081,test1,2020.2.5,MacIntel,60,,,0,26,26,26,1
,,,,m,3.13229,,,,,,flowers/images/212.jpg,flowers/images/38.jpg,28,YF,001,2020-11-23_23h44.27.081,test1,2020.2.5,MacIntel,60,,,0,27,27,27,1
,,,,m,3.092225,,,,,,flowers/images/152.jpg,flowers/images/0.jpg,29,YF,001,2020-11-23_23h44.27.081,test1,2020.2.5,MacIntel,60,,,0,28,28,28,1
,,,,z,2.10904,,,,,,flowers/images/170.jpg,flowers/images/296.jpg,30,YF,001,2020-11-23_23h44.27.081,test1,2020.2.5,MacIntel,60,,,0,29,29,29,1
,,,,m,2.925155,,,,,,flowers/images/74.jpg,flowers/images/80.jpg,31,YF,001,2020-11-23_23h44.27.081,test1,2020.2.5,MacIntel,60,,,0,30,30,30,1
,,,,z,2.54557,,,,,,flowers/images/226.jpg,flowers/images/117.jpg,32,YF,001,2020-11-23_23h44.27.081,test1,2020.2.5,MacIntel,60,,,0,31,31,31,1
,,,,m,2.113925,,,,,,flowers/images/1.jpg,flowers/images/19.jpg,33,YF,001,2020-11-23_23h44.27.081,test1,2020.2.5,MacIntel,60,,,0,32,32,32,1
,,,,m,3.308365,,,,,,flowers/images/182.jpg,flowers/images/335.jpg,34,YF,001,2020-11-23_23h44.27.081,test1,2020.2.5,MacIntel,60,,,0,33,33,33,1
,,,,z,3.45941,,,,,,flowers/images/245.jpg,flowers/images/62.jpg,35,YF,001,2020-11-23_23h44.27.081,test1,2020.2.5,MacIntel,60,,,0,34,34,34,1
,,,,m,2.095675,,,,,,flowers/images/167.jpg,flowers/images/49.jpg,36,YF,001,2020-11-23_23h44.27.081,test1,2020.2.5,MacIntel,60,,,0,35,35,35,1
,,,,z,1.65816,,,,,,flowers/images/38.jpg,flowers/images/250.jpg,37,YF,001,2020-11-23_23h44.27.081,test1,2020.2.5,MacIntel,60,,,0,36,36,36,1
,,,,z,3.25897,,,,,,flowers/images/124.jpg,flowers/images/324.jpg,38,YF,001,2020-11-23_23h44.27.081,test1,2020.2.5,MacIntel,60,,,0,37,37,37,1
,,,,z,3.47441,,,,,,flowers/images/92.jpg,flowers/images/13.jpg,39,YF,001,2020-11-23_23h44.27.081,test1,2020.2.5,MacIntel,60,,,0,38,38,38,1
,,,,z,1.06582,,,,,,flowers/images/120.jpg,flowers/images/374.jpg,40,YF,001,2020-11-23_23h44.27.081,test1,2020.2.5,MacIntel,60,,,0,39,39,39,1
,,,,m,1.096435,,,,,,flowers/images/350.jpg,flowers/images/100.jpg,41,YF,001,2020-11-23_23h44.27.081,test1,2020.2.5,MacIntel,60,,,0,40,40,40,1
,,,,z,2.267265,,,,,,flowers/images/68.jpg,flowers/images/236.jpg,42,YF,001,2020-11-23_23h44.27.081,test1,2020.2.5,MacIntel,60,,,0,41,41,41,1
,,,,z,2.206605,,,,,,flowers/images/5.jpg,flowers/images/340.jpg,43,YF,001,2020-11-23_23h44.27.081,test1,2020.2.5,MacIntel,60,,,0,42,42,42,1
,,,,m,1.208085,,,,,,flowers/images/99.jpg,flowers/images/313.jpg,44,YF,001,2020-11-23_23h44.27.081,test1,2020.2.5,MacIntel,60,,,0,43,43,43,1
,,,,m,2.79348,,,,,,flowers/images/229.jpg,flowers/images/177.jpg,45,YF,001,2020-11-23_23h44.27.081,test1,2020.2.5,MacIntel,60,,,0,44,44,44,1
,,,,m,1.967265,,,,,,flowers/images/361.jpg,flowers/images/383.jpg,46,YF,001,2020-11-23_23h44.27.081,test1,2020.2.5,MacIntel,60,,,0,45,45,45,1
,,,,z,2.042795,,,,,,flowers/images/129.jpg,flowers/images/398.jpg,47,YF,001,2020-11-23_23h44.27.081,test1,2020.2.5,MacIntel,60,,,0,46,46,46,1
,,,,z,1.15837,,,,,,flowers/images/228.jpg,flowers/images/159.jpg,48,YF,001,2020-11-23_23h44.27.081,test1,2020.2.5,MacIntel,60,,,0,47,47,47,1
,,,,m,2.064895,,,,,,flowers/images/65.jpg,flowers/images/312.jpg,49,YF,001,2020-11-23_23h44.27.081,test1,2020.2.5,MacIntel,60,,,0,48,48,48,1
,,,,z,1.581865,,,,,,flowers/images/73.jpg,flowers/images/163.jpg,50,YF,001,2020-11-23_23h44.27.081,test1,2020.2.5,MacIntel,60,,,0,49,49,49,1
,,,,m,2.779385,,,,,,flowers/images/224.jpg,flowers/images/278.jpg,51,YF,001,2020-11-23_23h44.27.081,test1,2020.2.5,MacIntel,60,,,0,50,50,50,1
,,,,m,1.3135,,,,,,flowers/images/312.jpg,flowers/images/185.jpg,52,YF,001,2020-11-23_23h44.27.081,test1,2020.2.5,MacIntel,60,,,0,51,51,51,1
,,,,m,1.731275,,,,,,flowers/images/256.jpg,flowers/images/112.jpg,53,YF,001,2020-11-23_23h44.27.081,test1,2020.2.5,MacIntel,60,,,0,52,52,52,1
,,,,m,1.48958,,,,,,flowers/images/26.jpg,flowers/images/261.jpg,54,YF,001,2020-11-23_23h44.27.081,test1,2020.2.5,MacIntel,60,,,0,53,53,53,1
,,,,z,1.648745,,,,,,flowers/images/51.jpg,flowers/images/106.jpg,55,YF,001,2020-11-23_23h44.27.081,test1,2020.2.5,MacIntel,60,,,0,54,54,54,1
,,,,m,1.62681,,,,,,flowers/images/371.jpg,flowers/images/160.jpg,56,YF,001,2020-11-23_23h44.27.081,test1,2020.2.5,MacIntel,60,,,0,55,55,55,1
,,,,m,3.394615,,,,,,flowers/images/59.jpg,flowers/images/257.jpg,57,YF,001,2020-11-23_23h44.27.081,test1,2020.2.5,MacIntel,60,,,0,56,56,56,1
,,,,z,1.847355,,,,,,flowers/images/347.jpg,flowers/images/190.jpg,58,YF,001,2020-11-23_23h44.27.081,test1,2020.2.5,MacIntel,60,,,0,57,57,57,1
,,,,z,1.679585,,,,,,flowers/images/8.jpg,flowers/images/209.jpg,59,YF,001,2020-11-23_23h44.27.081,test1,2020.2.5,MacIntel,60,,,0,58,58,58,1
,,,,m,1.36736,,,,,,flowers/images/278.jpg,flowers/images/31.jpg,60,YF,001,2020-11-23_23h44.27.081,test1,2020.2.5,MacIntel,60,,,0,59,59,59,1
,,,,z,3.01057,,,,,,flowers/images/262.jpg,flowers/images/325.jpg,61,YF,001,2020-11-23_23h44.27.081,test1,2020.2.5,MacIntel,60,,,0,60,60,60,1
,,,,m,1.833915,,,,,,flowers/images/273.jpg,flowers/images/83.jpg,62,YF,001,2020-11-23_23h44.27.081,test1,2020.2.5,MacIntel,60,,,0,61,61,61,1
,,,,m,1.50844,,,,,,flowers/images/52.jpg,flowers/images/17.jpg,63,YF,001,2020-11-23_23h44.27.081,test1,2020.2.5,MacIntel,60,,,0,62,62,62,1
,,,,m,3.66081,,,,,,flowers/images/243.jpg,flowers/images/27.jpg,64,YF,001,2020-11-23_23h44.27.081,test1,2020.2.5,MacIntel,60,,,0,63,63,63,1
,,,,m,1.259535,,,,,,flowers/images/175.jpg,flowers/images/192.jpg,65,YF,001,2020-11-23_23h44.27.081,test1,2020.2.5,MacIntel,60,,,0,64,64,64,1
,,,,z,1.191565,,,,,,flowers/images/53.jpg,flowers/images/199.jpg,66,YF,001,2020-11-23_23h44.27.081,test1,2020.2.5,MacIntel,60,,,0,65,65,65,1
,,,,m,1.69119,,,,,,flowers/images/316.jpg,flowers/images/381.jpg,67,YF,001,2020-11-23_23h44.27.081,test1,2020.2.5,MacIntel,60,,,0,66,66,66,1
,,,,m,1.327035,,,,,,flowers/images/249.jpg,flowers/images/213.jpg,68,YF,001,2020-11-23_23h44.27.081,test1,2020.2.5,MacIntel,60,,,0,67,67,67,1
,,,,m,2.52606,,,,,,flowers/images/70.jpg,flowers/images/60.jpg,69,YF,001,2020-11-23_23h44.27.081,test1,2020.2.5,MacIntel,60,,,0,68,68,68,1
,,,,m,1.15422,,,,,,flowers/images/300.jpg,flowers/images/386.jpg,70,YF,001,2020-11-23_23h44.27.081,test1,2020.2.5,MacIntel,60,,,0,69,69,69,1
,,,,z,2.24059,,,,,,flowers/images/162.jpg,flowers/images/149.jpg,71,YF,001,2020-11-23_23h44.27.081,test1,2020.2.5,MacIntel,60,,,0,70,70,70,1
,,,,m,2.635135,,,,,,flowers/images/146.jpg,flowers/images/336.jpg,72,YF,001,2020-11-23_23h44.27.081,test1,2020.2.5,MacIntel,60,,,0,71,71,71,1
,,,,m,0.98353,,,,,,flowers/images/115.jpg,flowers/images/120.jpg,73,YF,001,2020-11-23_23h44.27.081,test1,2020.2.5,MacIntel,60,,,0,72,72,72,1
,,,,m,3.327545,,,,,,flowers/images/311.jpg,flowers/images/123.jpg,74,YF,001,2020-11-23_23h44.27.081,test1,2020.2.5,MacIntel,60,,,0,73,73,73,1
,,,,z,1.278025,,,,,,flowers/images/33.jpg,flowers/images/146.jpg,75,YF,001,2020-11-23_23h44.27.081,test1,2020.2.5,MacIntel,60,,,0,74,74,74,1
,,,,z,3.514985,,,,,,flowers/images/78.jpg,flowers/images/352.jpg,76,YF,001,2020-11-23_23h44.27.081,test1,2020.2.5,MacIntel,60,,,0,75,75,75,1
,,,,m,2.541145,,,,,,flowers/images/43.jpg,flowers/images/50.jpg,77,YF,001,2020-11-23_23h44.27.081,test1,2020.2.5,MacIntel,60,,,0,76,76,76,1
,,,,z,2.833405,,,,,,flowers/images/373.jpg,flowers/images/78.jpg,78,YF,001,2020-11-23_23h44.27.081,test1,2020.2.5,MacIntel,60,,,0,77,77,77,1
,,,,z,1.375635,,,,,,flowers/images/233.jpg,flowers/images/134.jpg,79,YF,001,2020-11-23_23h44.27.081,test1,2020.2.5,MacIntel,60,,,0,78,78,78,1
,,,,z,2.4326,,,,,,flowers/images/386.jpg,flowers/images/390.jpg,80,YF,001,2020-11-23_23h44.27.081,test1,2020.2.5,MacIntel,60,,,0,79,79,79,1
,,,,m,1.72893,,,,,,flowers/images/205.jpg,flowers/images/388.jpg,81,YF,001,2020-11-23_23h44.27.081,test1,2020.2.5,MacIntel,60,,,0,80,80,80,1
,,,,m,4.115715,,,,,,flowers/images/130.jpg,flowers/images/48.jpg,82,YF,001,2020-11-23_23h44.27.081,test1,2020.2.5,MacIntel,60,,,0,81,81,81,1
,,,,m,1.67907,,,,,,flowers/images/187.jpg,flowers/images/253.jpg,83,YF,001,2020-11-23_23h44.27.081,test1,2020.2.5,MacIntel,60,,,0,82,82,82,1
,,,,m,3.851995,,,,,,flowers/images/232.jpg,flowers/images/141.jpg,84,YF,001,2020-11-23_23h44.27.081,test1,2020.2.5,MacIntel,60,,,0,83,83,83,1
,,,,z,1.582285,,,,,,flowers/images/253.jpg,flowers/images/71.jpg,85,YF,001,2020-11-23_23h44.27.081,test1,2020.2.5,MacIntel,60,,,0,84,84,84,1
,,,,m,2.54267,,,,,,flowers/images/332.jpg,flowers/images/322.jpg,86,YF,001,2020-11-23_23h44.27.081,test1,2020.2.5,MacIntel,60,,,0,85,85,85,1
,,,,m,3.06481,,,,,,flowers/images/103.jpg,flowers/images/182.jpg,87,YF,001,2020-11-23_23h44.27.081,test1,2020.2.5,MacIntel,60,,,0,86,86,86,1
,,,,m,5.779075,,,,,,flowers/images/271.jpg,flowers/images/103.jpg,88,YF,001,2020-11-23_23h44.27.081,test1,2020.2.5,MacIntel,60,,,0,87,87,87,1
,,,,z,5.43165,,,,,,flowers/images/63.jpg,flowers/images/227.jpg,89,YF,001,2020-11-23_23h44.27.081,test1,2020.2.5,MacIntel,60,,,0,88,88,88,1
,,,,z,2.179945,,,,,,flowers/images/382.jpg,flowers/images/359.jpg,90,YF,001,2020-11-23_23h44.27.081,test1,2020.2.5,MacIntel,60,,,0,89,89,89,1
,,,,m,2.95859,,,,,,flowers/images/252.jpg,flowers/images/87.jpg,91,YF,001,2020-11-23_23h44.27.081,test1,2020.2.5,MacIntel,60,,,0,90,90,90,1
,,,,m,1.60711,,,,,,flowers/images/101.jpg,flowers/images/196.jpg,92,YF,001,2020-11-23_23h44.27.081,test1,2020.2.5,MacIntel,60,,,0,91,91,91,1
,,,,m,2.02414,,,,,,flowers/images/104.jpg,flowers/images/270.jpg,93,YF,001,2020-11-23_23h44.27.081,test1,2020.2.5,MacIntel,60,,,0,92,92,92,1
,,,,z,2.07623,,,,,,flowers/images/270.jpg,flowers/images/108.jpg,94,YF,001,2020-11-23_23h44.27.081,test1,2020.2.5,MacIntel,60,,,0,93,93,93,1
,,,,z,3.15781,,,,,,flowers/images/0.jpg,flowers/images/143.jpg,95,YF,001,2020-11-23_23h44.27.081,test1,2020.2.5,MacIntel,60,,,0,94,94,94,1
,,,,z,2.13119,,,,,,flowers/images/348.jpg,flowers/images/276.jpg,96,YF,001,2020-11-23_23h44.27.081,test1,2020.2.5,MacIntel,60,,,0,95,95,95,1
,,,,m,1.41777,,,,,,flowers/images/251.jpg,flowers/images/55.jpg,97,YF,001,2020-11-23_23h44.27.081,test1,2020.2.5,MacIntel,60,,,0,96,96,96,1
,,,,m,1.632265,,,,,,flowers/images/119.jpg,flowers/images/43.jpg,98,YF,001,2020-11-23_23h44.27.081,test1,2020.2.5,MacIntel,60,,,0,97,97,97,1
,,,,z,6.03219,,,,,,flowers/images/158.jpg,flowers/images/46.jpg,99,YF,001,2020-11-23_23h44.27.081,test1,2020.2.5,MacIntel,60,,,0,98,98,98,1
,,,,z,2.349675,,,,,,flowers/images/297.jpg,flowers/images/205.jpg,100,YF,001,2020-11-23_23h44.27.081,test1,2020.2.5,MacIntel,60,,,0,99,99,99,1
,,,,m,1.383075,,,,,,flowers/images/25.jpg,flowers/images/54.jpg,101,YF,001,2020-11-23_23h44.27.081,test1,2020.2.5,MacIntel,60,,,0,100,100,100,1
,,,,m,1.13324,,,,,,flowers/images/67.jpg,flowers/images/331.jpg,102,YF,001,2020-11-23_23h44.27.081,test1,2020.2.5,MacIntel,60,,,0,101,101,101,1
,,,,z,1.39227,,,,,,flowers/images/366.jpg,flowers/images/372.jpg,103,YF,001,2020-11-23_23h44.27.081,test1,2020.2.5,MacIntel,60,,,0,102,102,102,1
,,,,z,1.790735,,,,,,flowers/images/4.jpg,flowers/images/220.jpg,104,YF,001,2020-11-23_23h44.27.081,test1,2020.2.5,MacIntel,60,,,0,103,103,103,1
,,,,z,1.993005,,,,,,flowers/images/90.jpg,flowers/images/148.jpg,105,YF,001,2020-11-23_23h44.27.081,test1,2020.2.5,MacIntel,60,,,0,104,104,104,1
,,,,z,1.074275,,,,,,flowers/images/198.jpg,flowers/images/380.jpg,106,YF,001,2020-11-23_23h44.27.081,test1,2020.2.5,MacIntel,60,,,0,105,105,105,1
,,,,m,1.874745,,,,,,flowers/images/375.jpg,flowers/images/362.jpg,107,YF,001,2020-11-23_23h44.27.081,test1,2020.2.5,MacIntel,60,,,0,106,106,106,1
,,,,z,1.96216,,,,,,flowers/images/372.jpg,flowers/images/98.jpg,108,YF,001,2020-11-23_23h44.27.081,test1,2020.2.5,MacIntel,60,,,0,107,107,107,1
,,,,m,1.36417,,,,,,flowers/images/364.jpg,flowers/images/12.jpg,109,YF,001,2020-11-23_23h44.27.081,test1,2020.2.5,MacIntel,60,,,0,108,108,108,1
,,,,z,1.95843,,,,,,flowers/images/176.jpg,flowers/images/316.jpg,110,YF,001,2020-11-23_23h44.27.081,test1,2020.2.5,MacIntel,60,,,0,109,109,109,1
,,,,z,1.505955,,,,,,flowers/images/48.jpg,flowers/images/75.jpg,111,YF,001,2020-11-23_23h44.27.081,test1,2020.2.5,MacIntel,60,,,0,110,110,110,1
,,,,m,3.46056,,,,,,flowers/images/188.jpg,flowers/images/8.jpg,112,YF,001,2020-11-23_23h44.27.081,test1,2020.2.5,MacIntel,60,,,0,111,111,111,1
,,,,m,1.459625,,,,,,flowers/images/288.jpg,flowers/images/251.jpg,113,YF,001,2020-11-23_23h44.27.081,test1,2020.2.5,MacIntel,60,,,0,112,112,112,1
,,,,z,2.2641,,,,,,flowers/images/349.jpg,flowers/images/282.jpg,114,YF,001,2020-11-23_23h44.27.081,test1,2020.2.5,MacIntel,60,,,0,113,113,113,1
,,,,m,2.61658,,,,,,flowers/images/135.jpg,flowers/images/172.jpg,115,YF,001,2020-11-23_23h44.27.081,test1,2020.2.5,MacIntel,60,,,0,114,114,114,1
,,,,m,2.20722,,,,,,flowers/images/283.jpg,flowers/images/139.jpg,116,YF,001,2020-11-23_23h44.27.081,test1,2020.2.5,MacIntel,60,,,0,115,115,115,1
,,,,z,6.010725,,,,,,flowers/images/301.jpg,flowers/images/102.jpg,117,YF,001,2020-11-23_23h44.27.081,test1,2020.2.5,MacIntel,60,,,0,116,116,116,1
,,,,m,3.55832,,,,,,flowers/images/164.jpg,flowers/images/392.jpg,118,YF,001,2020-11-23_23h44.27.081,test1,2020.2.5,MacIntel,60,,,0,117,117,117,1
,,,,m,1.4943,,,,,,flowers/images/385.jpg,flowers/images/244.jpg,119,YF,001,2020-11-23_23h44.27.081,test1,2020.2.5,MacIntel,60,,,0,118,118,118,1
,,,,m,4.579575,,,,,,flowers/images/137.jpg,flowers/images/104.jpg,120,YF,001,2020-11-23_23h44.27.081,test1,2020.2.5,MacIntel,60,,,0,119,119,119,1
,,,,z,1.17427,,,,,,flowers/images/23.jpg,flowers/images/157.jpg,121,YF,001,2020-11-23_23h44.27.081,test1,2020.2.5,MacIntel,60,,,0,120,120,120,1
,,,,m,1.19463,,,,,,flowers/images/310.jpg,flowers/images/238.jpg,122,YF,001,2020-11-23_23h44.27.081,test1,2020.2.5,MacIntel,60,,,0,121,121,121,1
,,,,z,3.83083,,,,,,flowers/images/215.jpg,flowers/images/222.jpg,123,YF,001,2020-11-23_23h44.27.081,test1,2020.2.5,MacIntel,60,,,0,122,122,122,1
,,,,m,4.043545,,,,,,flowers/images/244.jpg,flowers/images/274.jpg,124,YF,001,2020-11-23_23h44.27.081,test1,2020.2.5,MacIntel,60,,,0,123,123,123,1
,,,,m,1.892465,,,,,,flowers/images/313.jpg,flowers/images/329.jpg,125,YF,001,2020-11-23_23h44.27.081,test1,2020.2.5,MacIntel,60,,,0,124,124,124,1
,,,,m,3.865775,,,,,,flowers/images/207.jpg,flowers/images/188.jpg,126,YF,001,2020-11-23_23h44.27.081,test1,2020.2.5,MacIntel,60,,,0,125,125,125,1
,,,,z,4.8274,,,,,,flowers/images/265.jpg,flowers/images/351.jpg,127,YF,001,2020-11-23_23h44.27.081,test1,2020.2.5,MacIntel,60,,,0,126,126,126,1
,,,,z,1.44029,,,,,,flowers/images/248.jpg,flowers/images/239.jpg,128,YF,001,2020-11-23_23h44.27.081,test1,2020.2.5,MacIntel,60,,,0,127,127,127,1
,,,,z,1.68403,,,,,,flowers/images/204.jpg,flowers/images/225.jpg,129,YF,001,2020-11-23_23h44.27.081,test1,2020.2.5,MacIntel,60,,,0,128,128,128,1
,,,,z,3.618695,,,,,,flowers/images/13.jpg,flowers/images/119.jpg,130,YF,001,2020-11-23_23h44.27.081,test1,2020.2.5,MacIntel,60,,,0,129,129,129,1
,,,,m,3.00959,,,,,,flowers/images/370.jpg,flowers/images/39.jpg,131,YF,001,2020-11-23_23h44.27.081,test1,2020.2.5,MacIntel,60,,,0,130,130,130,1
,,,,z,3.830115,,,,,,flowers/images/397.jpg,flowers/images/69.jpg,132,YF,001,2020-11-23_23h44.27.081,test1,2020.2.5,MacIntel,60,,,0,131,131,131,1
,,,,m,1.426105,,,,,,flowers/images/393.jpg,flowers/images/399.jpg,133,YF,001,2020-11-23_23h44.27.081,test1,2020.2.5,MacIntel,60,,,0,132,132,132,1
,,,,m,2.17821,,,,,,flowers/images/363.jpg,flowers/images/74.jpg,134,YF,001,2020-11-23_23h44.27.081,test1,2020.2.5,MacIntel,60,,,0,133,133,133,1
,,,,z,1.843025,,,,,,flowers/images/254.jpg,flowers/images/174.jpg,135,YF,001,2020-11-23_23h44.27.081,test1,2020.2.5,MacIntel,60,,,0,134,134,134,1
,,,,m,3.608185,,,,,,flowers/images/139.jpg,flowers/images/70.jpg,136,YF,001,2020-11-23_23h44.27.081,test1,2020.2.5,MacIntel,60,,,0,135,135,135,1
,,,,m,2.097245,,,,,,flowers/images/95.jpg,flowers/images/315.jpg,137,YF,001,2020-11-23_23h44.27.081,test1,2020.2.5,MacIntel,60,,,0,136,136,136,1
,,,,m,1.216685,,,,,,flowers/images/294.jpg,flowers/images/334.jpg,138,YF,001,2020-11-23_23h44.27.081,test1,2020.2.5,MacIntel,60,,,0,137,137,137,1
,,,,m,1.7262,,,,,,flowers/images/174.jpg,flowers/images/171.jpg,139,YF,001,2020-11-23_23h44.27.081,test1,2020.2.5,MacIntel,60,,,0,138,138,138,1
,,,,m,1.429705,,,,,,flowers/images/57.jpg,flowers/images/326.jpg,140,YF,001,2020-11-23_23h44.27.081,test1,2020.2.5,MacIntel,60,,,0,139,139,139,1
,,,,z,1.97947,,,,,,flowers/images/246.jpg,flowers/images/82.jpg,141,YF,001,2020-11-23_23h44.27.081,test1,2020.2.5,MacIntel,60,,,0,140,140,140,1
,,,,m,3.092205,,,,,,flowers/images/16.jpg,flowers/images/45.jpg,142,YF,001,2020-11-23_23h44.27.081,test1,2020.2.5,MacIntel,60,,,0,141,141,141,1
,,,,m,1.024605,,,,,,flowers/images/380.jpg,flowers/images/150.jpg,143,YF,001,2020-11-23_23h44.27.081,test1,2020.2.5,MacIntel,60,,,0,142,142,142,1
,,,,m,1.35787,,,,,,flowers/images/109.jpg,flowers/images/350.jpg,144,YF,001,2020-11-23_23h44.27.081,test1,2020.2.5,MacIntel,60,,,0,143,143,143,1
,,,,z,4.43418,,,,,,flowers/images/223.jpg,flowers/images/366.jpg,145,YF,001,2020-11-23_23h44.27.081,test1,2020.2.5,MacIntel,60,,,0,144,144,144,1
,,,,m,1.88277,,,,,,flowers/images/60.jpg,flowers/images/194.jpg,146,YF,001,2020-11-23_23h44.27.081,test1,2020.2.5,MacIntel,60,,,0,145,145,145,1
,,,,z,3.179605,,,,,,flowers/images/268.jpg,flowers/images/332.jpg,147,YF,001,2020-11-23_23h44.27.081,test1,2020.2.5,MacIntel,60,,,0,146,146,146,1
,,,,z,1.39027,,,,,,flowers/images/388.jpg,flowers/images/319.jpg,148,YF,001,2020-11-23_23h44.27.081,test1,2020.2.5,MacIntel,60,,,0,147,147,147,1
,,,,m,1.47546,,,,,,flowers/images/356.jpg,flowers/images/337.jpg,149,YF,001,2020-11-23_23h44.27.081,test1,2020.2.5,MacIntel,60,,,0,148,148,148,1
,,,,z,2.62323,,,,,,flowers/images/384.jpg,flowers/images/344.jpg,150,YF,001,2020-11-23_23h44.27.081,test1,2020.2.5,MacIntel,60,,,0,149,149,149,1
,,,,m,2.29316,,,,,,flowers/images/333.jpg,flowers/images/346.jpg,151,YF,001,2020-11-23_23h44.27.081,test1,2020.2.5,MacIntel,60,,,0,150,150,150,1
,,,,m,1.99143,,,,,,flowers/images/24.jpg,flowers/images/116.jpg,152,YF,001,2020-11-23_23h44.27.081,test1,2020.2.5,MacIntel,60,,,0,151,151,151,1
,,,,z,4.10923,,,,,,flowers/images/220.jpg,flowers/images/235.jpg,153,YF,001,2020-11-23_23h44.27.081,test1,2020.2.5,MacIntel,60,,,0,152,152,152,1
,,,,m,1.08121,,,,,,flowers/images/269.jpg,flowers/images/198.jpg,154,YF,001,2020-11-23_23h44.27.081,test1,2020.2.5,MacIntel,60,,,0,153,153,153,1
,,,,z,4.047445,,,,,,flowers/images/107.jpg,flowers/images/1.jpg,155,YF,001,2020-11-23_23h44.27.081,test1,2020.2.5,MacIntel,60,,,0,154,154,154,1
,,,,z,2.974215,,,,,,flowers/images/314.jpg,flowers/images/147.jpg,156,YF,001,2020-11-23_23h44.27.081,test1,2020.2.5,MacIntel,60,,,0,155,155,155,1
,,,,m,1.760615,,,,,,flowers/images/117.jpg,flowers/images/258.jpg,157,YF,001,2020-11-23_23h44.27.081,test1,2020.2.5,MacIntel,60,,,0,156,156,156,1
,,,,z,2.039265,,,,,,flowers/images/41.jpg,flowers/images/214.jpg,158,YF,001,2020-11-23_23h44.27.081,test1,2020.2.5,MacIntel,60,,,0,157,157,157,1
,,,,m,1.293825,,,,,,flowers/images/306.jpg,flowers/images/118.jpg,159,YF,001,2020-11-23_23h44.27.081,test1,2020.2.5,MacIntel,60,,,0,158,158,158,1
,,,,z,1.51201,,,,,,flowers/images/299.jpg,flowers/images/40.jpg,160,YF,001,2020-11-23_23h44.27.081,test1,2020.2.5,MacIntel,60,,,0,159,159,159,1
,,,,m,1.559495,,,,,,flowers/images/50.jpg,flowers/images/291.jpg,161,YF,001,2020-11-23_23h44.27.081,test1,2020.2.5,MacIntel,60,,,0,160,160,160,1
,,,,z,1.42438,,,,,,flowers/images/238.jpg,flowers/images/129.jpg,162,YF,001,2020-11-23_23h44.27.081,test1,2020.2.5,MacIntel,60,,,0,161,161,161,1
,,,,z,2.02316,,,,,,flowers/images/30.jpg,flowers/images/136.jpg,163,YF,001,2020-11-23_23h44.27.081,test1,2020.2.5,MacIntel,60,,,0,162,162,162,1
,,,,m,2.991145,,,,,,flowers/images/211.jpg,flowers/images/306.jpg,164,YF,001,2020-11-23_23h44.27.081,test1,2020.2.5,MacIntel,60,,,0,163,163,163,1
,,,,m,2.5605,,,,,,flowers/images/227.jpg,flowers/images/57.jpg,165,YF,001,2020-11-23_23h44.27.081,test1,2020.2.5,MacIntel,60,,,0,164,164,164,1
,,,,z,4.176315,,,,,,flowers/images/242.jpg,flowers/images/61.jpg,166,YF,001,2020-11-23_23h44.27.081,test1,2020.2.5,MacIntel,60,,,0,165,165,165,1
,,,,z,2.63228,,,,,,flowers/images/387.jpg,flowers/images/263.jpg,167,YF,001,2020-11-23_23h44.27.081,test1,2020.2.5,MacIntel,60,,,0,166,166,166,1
,,,,m,3.378545,,,,,,flowers/images/193.jpg,flowers/images/367.jpg,168,YF,001,2020-11-23_23h44.27.081,test1,2020.2.5,MacIntel,60,,,0,167,167,167,1
,,,,m,2.21358,,,,,,flowers/images/231.jpg,flowers/images/18.jpg,169,YF,001,2020-11-23_23h44.27.081,test1,2020.2.5,MacIntel,60,,,0,168,168,168,1
,,,,m,1.895215,,,,,,flowers/images/154.jpg,flowers/images/32.jpg,170,YF,001,2020-11-23_23h44.27.081,test1,2020.2.5,MacIntel,60,,,0,169,169,169,1
,,,,m,1.614245,,,,,,flowers/images/79.jpg,flowers/images/301.jpg,171,YF,001,2020-11-23_23h44.27.081,test1,2020.2.5,MacIntel,60,,,0,170,170,170,1
,,,,z,1.314825,,,,,,flowers/images/263.jpg,flowers/images/210.jpg,172,YF,001,2020-11-23_23h44.27.081,test1,2020.2.5,MacIntel,60,,,0,171,171,171,1
,,,,m,2.458875,,,,,,flowers/images/383.jpg,flowers/images/354.jpg,173,YF,001,2020-11-23_23h44.27.081,test1,2020.2.5,MacIntel,60,,,0,172,172,172,1
,,,,z,1.92316,,,,,,flowers/images/290.jpg,flowers/images/212.jpg,174,YF,001,2020-11-23_23h44.27.081,test1,2020.2.5,MacIntel,60,,,0,173,173,173,1
,,,,m,2.309615,,,,,,flowers/images/206.jpg,flowers/images/397.jpg,175,YF,001,2020-11-23_23h44.27.081,test1,2020.2.5,MacIntel,60,,,0,174,174,174,1
,,,,m,6.196315,,,,,,flowers/images/317.jpg,flowers/images/297.jpg,176,YF,001,2020-11-23_23h44.27.081,test1,2020.2.5,MacIntel,60,,,0,175,175,175,1
,,,,m,2.912125,,,,,,flowers/images/329.jpg,flowers/images/255.jpg,177,YF,001,2020-11-23_23h44.27.081,test1,2020.2.5,MacIntel,60,,,0,176,176,176,1
,,,,m,2.61309,,,,,,flowers/images/225.jpg,flowers/images/91.jpg,178,YF,001,2020-11-23_23h44.27.081,test1,2020.2.5,MacIntel,60,,,0,177,177,177,1
,,,,z,1.765185,,,,,,flowers/images/11.jpg,flowers/images/256.jpg,179,YF,001,2020-11-23_23h44.27.081,test1,2020.2.5,MacIntel,60,,,0,178,178,178,1
,,,,z,1.932055,,,,,,flowers/images/234.jpg,flowers/images/64.jpg,180,YF,001,2020-11-23_23h44.27.081,test1,2020.2.5,MacIntel,60,,,0,179,179,179,1
,,,,z,2.69241,,,,,,flowers/images/342.jpg,flowers/images/26.jpg,181,YF,001,2020-11-23_23h44.27.081,test1,2020.2.5,MacIntel,60,,,0,180,180,180,1
,,,,m,1.74917,,,,,,flowers/images/391.jpg,flowers/images/286.jpg,182,YF,001,2020-11-23_23h44.27.081,test1,2020.2.5,MacIntel,60,,,0,181,181,181,1
,,,,m,1.60964,,,,,,flowers/images/221.jpg,flowers/images/268.jpg,183,YF,001,2020-11-23_23h44.27.081,test1,2020.2.5,MacIntel,60,,,0,182,182,182,1
,,,,m,1.506715,,,,,,flowers/images/210.jpg,flowers/images/84.jpg,184,YF,001,2020-11-23_23h44.27.081,test1,2020.2.5,MacIntel,60,,,0,183,183,183,1
,,,,m,4.476325,,,,,,flowers/images/138.jpg,flowers/images/77.jpg,185,YF,001,2020-11-23_23h44.27.081,test1,2020.2.5,MacIntel,60,,,0,184,184,184,1
,,,,z,1.723635,,,,,,flowers/images/315.jpg,flowers/images/269.jpg,186,YF,001,2020-11-23_23h44.27.081,test1,2020.2.5,MacIntel,60,,,0,185,185,185,1
,,,,m,1.55726,,,,,,flowers/images/308.jpg,flowers/images/265.jpg,187,YF,001,2020-11-23_23h44.27.081,test1,2020.2.5,MacIntel,60,,,0,186,186,186,1
,,,,m,2.93471,,,,,,flowers/images/88.jpg,flowers/images/56.jpg,188,YF,001,2020-11-23_23h44.27.081,test1,2020.2.5,MacIntel,60,,,0,187,187,187,1
,,,,z,1.494175,,,,,,flowers/images/102.jpg,flowers/images/126.jpg,189,YF,001,2020-11-23_23h44.27.081,test1,2020.2.5,MacIntel,60,,,0,188,188,188,1
,,,,m,1.07574,,,,,,flowers/images/132.jpg,flowers/images/389.jpg,190,YF,001,2020-11-23_23h44.27.081,test1,2020.2.5,MacIntel,60,,,0,189,189,189,1
,,,,z,1.52469,,,,,,flowers/images/186.jpg,flowers/images/144.jpg,191,YF,001,2020-11-23_23h44.27.081,test1,2020.2.5,MacIntel,60,,,0,190,190,190,1
,,,,z,4.798745,,,,,,flowers/images/284.jpg,flowers/images/92.jpg,192,YF,001,2020-11-23_23h44.27.081,test1,2020.2.5,MacIntel,60,,,0,191,191,191,1
,,,,z,5.503565,,,,,,flowers/images/396.jpg,flowers/images/24.jpg,193,YF,001,2020-11-23_23h44.27.081,test1,2020.2.5,MacIntel,60,,,0,192,192,192,1
,,,,m,1.8928,,,,,,flowers/images/374.jpg,flowers/images/287.jpg,194,YF,001,2020-11-23_23h44.27.081,test1,2020.2.5,MacIntel,60,,,0,193,193,193,1
,,,,m,1.412545,,,,,,flowers/images/140.jpg,flowers/images/267.jpg,195,YF,001,2020-11-23_23h44.27.081,test1,2020.2.5,MacIntel,60,,,0,194,194,194,1
,,,,m,1.580885,,,,,,flowers/images/267.jpg,flowers/images/343.jpg,196,YF,001,2020-11-23_23h44.27.081,test1,2020.2.5,MacIntel,60,,,0,195,195,195,1
,,,,m,1.756595,,,,,,flowers/images/286.jpg,flowers/images/35.jpg,197,YF,001,2020-11-23_23h44.27.081,test1,2020.2.5,MacIntel,60,,,0,196,196,196,1
,,,,z,2.64266,,,,,,flowers/images/143.jpg,flowers/images/391.jpg,198,YF,001,2020-11-23_23h44.27.081,test1,2020.2.5,MacIntel,60,,,0,197,197,197,1
,,,,m,1.623195,,,,,,flowers/images/196.jpg,flowers/images/155.jpg,199,YF,001,2020-11-23_23h44.27.081,test1,2020.2.5,MacIntel,60,,,0,198,198,198,1
,,,,m,2.23921,,,,,,flowers/images/281.jpg,flowers/images/394.jpg,200,YF,001,2020-11-23_23h44.27.081,test1,2020.2.5,MacIntel,60,,,0,199,199,199,1
