key_resp.keys,key_resp.rt,key_resp_3.keys,key_resp_3.rt,key_resp_2.keys,key_resp_2.rt,trials.thisRepN,trials.thisTrialN,trials.thisN,trials.thisIndex,trials.ran,image_left,image_right,trial_num,participant,session,date,expName,psychopyVersion,OS,frameRate,key_resp_5.keys,key_resp_5.rt,key_resp_4.keys,key_resp_4.rt,trials_2.thisRepN,trials_2.thisTrialN,trials_2.thisN,trials_2.thisIndex,trials_2.ran
space,0.819,space,0.37,m,3.911,0,0,0,0,1,paints/images/344.jpg,paints/images/121.jpg,1,Ai,1,2020-11-21_22h48.31.078,test3,2020.2.4,MacIntel,60,,,,,,,,,
,,,,m,1.13,0,1,1,1,1,paints/images/369.jpg,paints/images/367.jpg,2,Ai,1,2020-11-21_22h48.31.078,test3,2020.2.4,MacIntel,60,,,,,,,,,
,,,,m,1.389,0,2,2,2,1,paints/images/385.jpg,paints/images/253.jpg,3,Ai,1,2020-11-21_22h48.31.078,test3,2020.2.4,MacIntel,60,,,,,,,,,
,,,,z,1.183,0,3,3,3,1,paints/images/230.jpg,paints/images/124.jpg,4,Ai,1,2020-11-21_22h48.31.078,test3,2020.2.4,MacIntel,60,,,,,,,,,
,,,,m,0.957,0,4,4,4,1,paints/images/284.jpg,paints/images/172.jpg,5,Ai,1,2020-11-21_22h48.31.078,test3,2020.2.4,MacIntel,60,,,,,,,,,
,,,,m,0.97,0,5,5,5,1,paints/images/325.jpg,paints/images/5.jpg,6,Ai,1,2020-11-21_22h48.31.078,test3,2020.2.4,MacIntel,60,,,,,,,,,
,,,,z,0.938,0,6,6,6,1,paints/images/2.jpg,paints/images/107.jpg,7,Ai,1,2020-11-21_22h48.31.078,test3,2020.2.4,MacIntel,60,,,,,,,,,
,,,,m,0.876,0,7,7,7,1,paints/images/330.jpg,paints/images/93.jpg,8,Ai,1,2020-11-21_22h48.31.078,test3,2020.2.4,MacIntel,60,,,,,,,,,
,,,,m,1.461,0,8,8,8,1,paints/images/197.jpg,paints/images/20.jpg,9,Ai,1,2020-11-21_22h48.31.078,test3,2020.2.4,MacIntel,60,,,,,,,,,
,,,,z,0.978,0,9,9,9,1,paints/images/233.jpg,paints/images/346.jpg,10,Ai,1,2020-11-21_22h48.31.078,test3,2020.2.4,MacIntel,60,,,,,,,,,
,,,,m,0.904,0,10,10,10,1,paints/images/289.jpg,paints/images/317.jpg,11,Ai,1,2020-11-21_22h48.31.078,test3,2020.2.4,MacIntel,60,,,,,,,,,
,,,,m,1.57,0,11,11,11,1,paints/images/189.jpg,paints/images/230.jpg,12,Ai,1,2020-11-21_22h48.31.078,test3,2020.2.4,MacIntel,60,,,,,,,,,
,,,,m,1.472,0,12,12,12,1,paints/images/28.jpg,paints/images/401.jpg,13,Ai,1,2020-11-21_22h48.31.078,test3,2020.2.4,MacIntel,60,,,,,,,,,
,,,,z,1.125,0,13,13,13,1,paints/images/183.jpg,paints/images/198.jpg,14,Ai,1,2020-11-21_22h48.31.078,test3,2020.2.4,MacIntel,60,,,,,,,,,
,,,,z,1.217,0,14,14,14,1,paints/images/223.jpg,paints/images/249.jpg,15,Ai,1,2020-11-21_22h48.31.078,test3,2020.2.4,MacIntel,60,,,,,,,,,
,,,,z,1.334,0,15,15,15,1,paints/images/331.jpg,paints/images/168.jpg,16,Ai,1,2020-11-21_22h48.31.078,test3,2020.2.4,MacIntel,60,,,,,,,,,
,,,,m,1.518,0,16,16,16,1,paints/images/129.jpg,paints/images/21.jpg,17,Ai,1,2020-11-21_22h48.31.078,test3,2020.2.4,MacIntel,60,,,,,,,,,
,,,,z,1.589,0,17,17,17,1,paints/images/250.jpg,paints/images/290.jpg,18,Ai,1,2020-11-21_22h48.31.078,test3,2020.2.4,MacIntel,60,,,,,,,,,
,,,,m,1.413,0,18,18,18,1,paints/images/342.jpg,paints/images/371.jpg,19,Ai,1,2020-11-21_22h48.31.078,test3,2020.2.4,MacIntel,60,,,,,,,,,
,,,,z,1.444,0,19,19,19,1,paints/images/312.jpg,paints/images/349.jpg,20,Ai,1,2020-11-21_22h48.31.078,test3,2020.2.4,MacIntel,60,,,,,,,,,
,,,,m,1.078,0,20,20,20,1,paints/images/44.jpg,paints/images/23.jpg,21,Ai,1,2020-11-21_22h48.31.078,test3,2020.2.4,MacIntel,60,,,,,,,,,
,,,,z,1.623,0,21,21,21,1,paints/images/209.jpg,paints/images/236.jpg,22,Ai,1,2020-11-21_22h48.31.078,test3,2020.2.4,MacIntel,60,,,,,,,,,
,,,,z,1.269,0,22,22,22,1,paints/images/314.jpg,paints/images/326.jpg,23,Ai,1,2020-11-21_22h48.31.078,test3,2020.2.4,MacIntel,60,,,,,,,,,
,,,,m,0.633,0,23,23,23,1,paints/images/374.jpg,paints/images/397.jpg,24,Ai,1,2020-11-21_22h48.31.078,test3,2020.2.4,MacIntel,60,,,,,,,,,
,,,,m,0.641,0,24,24,24,1,paints/images/355.jpg,paints/images/400.jpg,25,Ai,1,2020-11-21_22h48.31.078,test3,2020.2.4,MacIntel,60,,,,,,,,,
,,,,z,0.836,0,25,25,25,1,paints/images/346.jpg,paints/images/223.jpg,26,Ai,1,2020-11-21_22h48.31.078,test3,2020.2.4,MacIntel,60,,,,,,,,,
,,,,m,0.793,0,26,26,26,1,paints/images/292.jpg,paints/images/122.jpg,27,Ai,1,2020-11-21_22h48.31.078,test3,2020.2.4,MacIntel,60,,,,,,,,,
,,,,m,0.81,0,27,27,27,1,paints/images/81.jpg,paints/images/294.jpg,28,Ai,1,2020-11-21_22h48.31.078,test3,2020.2.4,MacIntel,60,,,,,,,,,
,,,,z,1.275,0,28,28,28,1,paints/images/359.jpg,paints/images/370.jpg,29,Ai,1,2020-11-21_22h48.31.078,test3,2020.2.4,MacIntel,60,,,,,,,,,
,,,,m,1.086,0,29,29,29,1,paints/images/88.jpg,paints/images/119.jpg,30,Ai,1,2020-11-21_22h48.31.078,test3,2020.2.4,MacIntel,60,,,,,,,,,
,,,,z,1.752,0,30,30,30,1,paints/images/178.jpg,paints/images/47.jpg,31,Ai,1,2020-11-21_22h48.31.078,test3,2020.2.4,MacIntel,60,,,,,,,,,
,,,,z,1.435,0,31,31,31,1,paints/images/139.jpg,paints/images/377.jpg,32,Ai,1,2020-11-21_22h48.31.078,test3,2020.2.4,MacIntel,60,,,,,,,,,
,,,,z,0.739,0,32,32,32,1,paints/images/142.jpg,paints/images/379.jpg,33,Ai,1,2020-11-21_22h48.31.078,test3,2020.2.4,MacIntel,60,,,,,,,,,
,,,,m,0.954,0,33,33,33,1,paints/images/366.jpg,paints/images/22.jpg,34,Ai,1,2020-11-21_22h48.31.078,test3,2020.2.4,MacIntel,60,,,,,,,,,
,,,,z,1.941,0,34,34,34,1,paints/images/277.jpg,paints/images/365.jpg,35,Ai,1,2020-11-21_22h48.31.078,test3,2020.2.4,MacIntel,60,,,,,,,,,
,,,,m,1.378,0,35,35,35,1,paints/images/406.jpg,paints/images/388.jpg,36,Ai,1,2020-11-21_22h48.31.078,test3,2020.2.4,MacIntel,60,,,,,,,,,
,,,,m,1.019,0,36,36,36,1,paints/images/389.jpg,paints/images/104.jpg,37,Ai,1,2020-11-21_22h48.31.078,test3,2020.2.4,MacIntel,60,,,,,,,,,
,,,,m,0.771,0,37,37,37,1,paints/images/20.jpg,paints/images/84.jpg,38,Ai,1,2020-11-21_22h48.31.078,test3,2020.2.4,MacIntel,60,,,,,,,,,
,,,,m,0.557,0,38,38,38,1,paints/images/169.jpg,paints/images/163.jpg,39,Ai,1,2020-11-21_22h48.31.078,test3,2020.2.4,MacIntel,60,,,,,,,,,
,,,,z,1.444,0,39,39,39,1,paints/images/58.jpg,paints/images/359.jpg,40,Ai,1,2020-11-21_22h48.31.078,test3,2020.2.4,MacIntel,60,,,,,,,,,
,,,,m,0.782,0,40,40,40,1,paints/images/376.jpg,paints/images/256.jpg,41,Ai,1,2020-11-21_22h48.31.078,test3,2020.2.4,MacIntel,60,,,,,,,,,
,,,,z,0.835,0,41,41,41,1,paints/images/33.jpg,paints/images/261.jpg,42,Ai,1,2020-11-21_22h48.31.078,test3,2020.2.4,MacIntel,60,,,,,,,,,
,,,,z,0.827,0,42,42,42,1,paints/images/294.jpg,paints/images/96.jpg,43,Ai,1,2020-11-21_22h48.31.078,test3,2020.2.4,MacIntel,60,,,,,,,,,
,,,,m,0.945,0,43,43,43,1,paints/images/269.jpg,paints/images/293.jpg,44,Ai,1,2020-11-21_22h48.31.078,test3,2020.2.4,MacIntel,60,,,,,,,,,
,,,,z,1.126,0,44,44,44,1,paints/images/199.jpg,paints/images/284.jpg,45,Ai,1,2020-11-21_22h48.31.078,test3,2020.2.4,MacIntel,60,,,,,,,,,
,,,,m,1.292,0,45,45,45,1,paints/images/255.jpg,paints/images/281.jpg,46,Ai,1,2020-11-21_22h48.31.078,test3,2020.2.4,MacIntel,60,,,,,,,,,
,,,,m,1.178,0,46,46,46,1,paints/images/382.jpg,paints/images/4.jpg,47,Ai,1,2020-11-21_22h48.31.078,test3,2020.2.4,MacIntel,60,,,,,,,,,
,,,,m,0.845,0,47,47,47,1,paints/images/111.jpg,paints/images/83.jpg,48,Ai,1,2020-11-21_22h48.31.078,test3,2020.2.4,MacIntel,60,,,,,,,,,
,,,,z,0.887,0,48,48,48,1,paints/images/239.jpg,paints/images/151.jpg,49,Ai,1,2020-11-21_22h48.31.078,test3,2020.2.4,MacIntel,60,,,,,,,,,
,,,,z,1.489,0,49,49,49,1,paints/images/84.jpg,paints/images/341.jpg,50,Ai,1,2020-11-21_22h48.31.078,test3,2020.2.4,MacIntel,60,,,,,,,,,
,,,,z,1.09,0,50,50,50,1,paints/images/317.jpg,paints/images/159.jpg,51,Ai,1,2020-11-21_22h48.31.078,test3,2020.2.4,MacIntel,60,,,,,,,,,
,,,,m,0.803,0,51,51,51,1,paints/images/153.jpg,paints/images/212.jpg,52,Ai,1,2020-11-21_22h48.31.078,test3,2020.2.4,MacIntel,60,,,,,,,,,
,,,,z,0.906,0,52,52,52,1,paints/images/5.jpg,paints/images/361.jpg,53,Ai,1,2020-11-21_22h48.31.078,test3,2020.2.4,MacIntel,60,,,,,,,,,
,,,,m,0.91,0,53,53,53,1,paints/images/319.jpg,paints/images/178.jpg,54,Ai,1,2020-11-21_22h48.31.078,test3,2020.2.4,MacIntel,60,,,,,,,,,
,,,,m,1.203,0,54,54,54,1,paints/images/118.jpg,paints/images/275.jpg,55,Ai,1,2020-11-21_22h48.31.078,test3,2020.2.4,MacIntel,60,,,,,,,,,
,,,,z,0.905,0,55,55,55,1,paints/images/213.jpg,paints/images/312.jpg,56,Ai,1,2020-11-21_22h48.31.078,test3,2020.2.4,MacIntel,60,,,,,,,,,
,,,,m,0.842,0,56,56,56,1,paints/images/4.jpg,paints/images/131.jpg,57,Ai,1,2020-11-21_22h48.31.078,test3,2020.2.4,MacIntel,60,,,,,,,,,
,,,,m,0.66,0,57,57,57,1,paints/images/206.jpg,paints/images/391.jpg,58,Ai,1,2020-11-21_22h48.31.078,test3,2020.2.4,MacIntel,60,,,,,,,,,
,,,,m,1.115,0,58,58,58,1,paints/images/349.jpg,paints/images/240.jpg,59,Ai,1,2020-11-21_22h48.31.078,test3,2020.2.4,MacIntel,60,,,,,,,,,
,,,,m,0.748,0,59,59,59,1,paints/images/174.jpg,paints/images/197.jpg,60,Ai,1,2020-11-21_22h48.31.078,test3,2020.2.4,MacIntel,60,,,,,,,,,
,,,,z,0.564,0,60,60,60,1,paints/images/93.jpg,paints/images/330.jpg,61,Ai,1,2020-11-21_22h48.31.078,test3,2020.2.4,MacIntel,60,,,,,,,,,
,,,,m,0.566,0,61,61,61,1,paints/images/262.jpg,paints/images/225.jpg,62,Ai,1,2020-11-21_22h48.31.078,test3,2020.2.4,MacIntel,60,,,,,,,,,
,,,,z,0.536,0,62,62,62,1,paints/images/322.jpg,paints/images/267.jpg,63,Ai,1,2020-11-21_22h48.31.078,test3,2020.2.4,MacIntel,60,,,,,,,,,
,,,,m,0.44,0,63,63,63,1,paints/images/104.jpg,paints/images/140.jpg,64,Ai,1,2020-11-21_22h48.31.078,test3,2020.2.4,MacIntel,60,,,,,,,,,
,,,,z,0.57,0,64,64,64,1,paints/images/400.jpg,paints/images/355.jpg,65,Ai,1,2020-11-21_22h48.31.078,test3,2020.2.4,MacIntel,60,,,,,,,,,
,,,,m,0.589,0,65,65,65,1,paints/images/89.jpg,paints/images/380.jpg,66,Ai,1,2020-11-21_22h48.31.078,test3,2020.2.4,MacIntel,60,,,,,,,,,
,,,,m,0.471,0,66,66,66,1,paints/images/181.jpg,paints/images/195.jpg,67,Ai,1,2020-11-21_22h48.31.078,test3,2020.2.4,MacIntel,60,,,,,,,,,
,,,,z,0.503,0,67,67,67,1,paints/images/130.jpg,paints/images/155.jpg,68,Ai,1,2020-11-21_22h48.31.078,test3,2020.2.4,MacIntel,60,,,,,,,,,
,,,,m,0.542,0,68,68,68,1,paints/images/15.jpg,paints/images/55.jpg,69,Ai,1,2020-11-21_22h48.31.078,test3,2020.2.4,MacIntel,60,,,,,,,,,
,,,,m,0.675,0,69,69,69,1,paints/images/393.jpg,paints/images/34.jpg,70,Ai,1,2020-11-21_22h48.31.078,test3,2020.2.4,MacIntel,60,,,,,,,,,
,,,,m,0.814,0,70,70,70,1,paints/images/192.jpg,paints/images/351.jpg,71,Ai,1,2020-11-21_22h48.31.078,test3,2020.2.4,MacIntel,60,,,,,,,,,
,,,,m,0.974,0,71,71,71,1,paints/images/57.jpg,paints/images/363.jpg,72,Ai,1,2020-11-21_22h48.31.078,test3,2020.2.4,MacIntel,60,,,,,,,,,
,,,,z,1.238,0,72,72,72,1,paints/images/243.jpg,paints/images/295.jpg,73,Ai,1,2020-11-21_22h48.31.078,test3,2020.2.4,MacIntel,60,,,,,,,,,
,,,,z,1.588,0,73,73,73,1,paints/images/196.jpg,paints/images/146.jpg,74,Ai,1,2020-11-21_22h48.31.078,test3,2020.2.4,MacIntel,60,,,,,,,,,
,,,,m,1.538,0,74,74,74,1,paints/images/367.jpg,paints/images/332.jpg,75,Ai,1,2020-11-21_22h48.31.078,test3,2020.2.4,MacIntel,60,,,,,,,,,
,,,,z,0.622,0,75,75,75,1,paints/images/249.jpg,paints/images/50.jpg,76,Ai,1,2020-11-21_22h48.31.078,test3,2020.2.4,MacIntel,60,,,,,,,,,
,,,,m,0.453,0,76,76,76,1,paints/images/100.jpg,paints/images/91.jpg,77,Ai,1,2020-11-21_22h48.31.078,test3,2020.2.4,MacIntel,60,,,,,,,,,
,,,,m,0.616,0,77,77,77,1,paints/images/301.jpg,paints/images/154.jpg,78,Ai,1,2020-11-21_22h48.31.078,test3,2020.2.4,MacIntel,60,,,,,,,,,
,,,,z,0.551,0,78,78,78,1,paints/images/13.jpg,paints/images/308.jpg,79,Ai,1,2020-11-21_22h48.31.078,test3,2020.2.4,MacIntel,60,,,,,,,,,
,,,,m,1.069,0,79,79,79,1,paints/images/11.jpg,paints/images/24.jpg,80,Ai,1,2020-11-21_22h48.31.078,test3,2020.2.4,MacIntel,60,,,,,,,,,
,,,,z,0.536,0,80,80,80,1,paints/images/27.jpg,paints/images/114.jpg,81,Ai,1,2020-11-21_22h48.31.078,test3,2020.2.4,MacIntel,60,,,,,,,,,
,,,,m,0.853,0,81,81,81,1,paints/images/334.jpg,paints/images/217.jpg,82,Ai,1,2020-11-21_22h48.31.078,test3,2020.2.4,MacIntel,60,,,,,,,,,
,,,,z,0.753,0,82,82,82,1,paints/images/340.jpg,paints/images/320.jpg,83,Ai,1,2020-11-21_22h48.31.078,test3,2020.2.4,MacIntel,60,,,,,,,,,
,,,,z,0.778,0,83,83,83,1,paints/images/204.jpg,paints/images/52.jpg,84,Ai,1,2020-11-21_22h48.31.078,test3,2020.2.4,MacIntel,60,,,,,,,,,
,,,,m,0.71,0,84,84,84,1,paints/images/266.jpg,paints/images/179.jpg,85,Ai,1,2020-11-21_22h48.31.078,test3,2020.2.4,MacIntel,60,,,,,,,,,
,,,,m,0.614,0,85,85,85,1,paints/images/309.jpg,paints/images/45.jpg,86,Ai,1,2020-11-21_22h48.31.078,test3,2020.2.4,MacIntel,60,,,,,,,,,
,,,,z,0.496,0,86,86,86,1,paints/images/48.jpg,paints/images/352.jpg,87,Ai,1,2020-11-21_22h48.31.078,test3,2020.2.4,MacIntel,60,,,,,,,,,
,,,,m,0.311,0,87,87,87,1,paints/images/238.jpg,paints/images/190.jpg,88,Ai,1,2020-11-21_22h48.31.078,test3,2020.2.4,MacIntel,60,,,,,,,,,
,,,,z,0.296,0,88,88,88,1,paints/images/216.jpg,paints/images/207.jpg,89,Ai,1,2020-11-21_22h48.31.078,test3,2020.2.4,MacIntel,60,,,,,,,,,
,,,,m,0.29,0,89,89,89,1,paints/images/228.jpg,paints/images/315.jpg,90,Ai,1,2020-11-21_22h48.31.078,test3,2020.2.4,MacIntel,60,,,,,,,,,
,,,,m,0.304,0,90,90,90,1,paints/images/368.jpg,paints/images/221.jpg,91,Ai,1,2020-11-21_22h48.31.078,test3,2020.2.4,MacIntel,60,,,,,,,,,
,,,,z,0.302,0,91,91,91,1,paints/images/402.jpg,paints/images/257.jpg,92,Ai,1,2020-11-21_22h48.31.078,test3,2020.2.4,MacIntel,60,,,,,,,,,
,,,,m,0.309,0,92,92,92,1,paints/images/248.jpg,paints/images/296.jpg,93,Ai,1,2020-11-21_22h48.31.078,test3,2020.2.4,MacIntel,60,,,,,,,,,
,,,,m,0.312,0,93,93,93,1,paints/images/234.jpg,paints/images/174.jpg,94,Ai,1,2020-11-21_22h48.31.078,test3,2020.2.4,MacIntel,60,,,,,,,,,
,,,,z,0.228,0,94,94,94,1,paints/images/149.jpg,paints/images/204.jpg,95,Ai,1,2020-11-21_22h48.31.078,test3,2020.2.4,MacIntel,60,,,,,,,,,
,,,,z,0.347,0,95,95,95,1,paints/images/56.jpg,paints/images/117.jpg,96,Ai,1,2020-11-21_22h48.31.078,test3,2020.2.4,MacIntel,60,,,,,,,,,
,,,,m,0.274,0,96,96,96,1,paints/images/146.jpg,paints/images/287.jpg,97,Ai,1,2020-11-21_22h48.31.078,test3,2020.2.4,MacIntel,60,,,,,,,,,
,,,,m,0.343,0,97,97,97,1,paints/images/221.jpg,paints/images/62.jpg,98,Ai,1,2020-11-21_22h48.31.078,test3,2020.2.4,MacIntel,60,,,,,,,,,
,,,,m,0.259,0,98,98,98,1,paints/images/110.jpg,paints/images/321.jpg,99,Ai,1,2020-11-21_22h48.31.078,test3,2020.2.4,MacIntel,60,,,,,,,,,
,,,,m,0.161,0,99,99,99,1,paints/images/67.jpg,paints/images/384.jpg,100,Ai,1,2020-11-21_22h48.31.078,test3,2020.2.4,MacIntel,60,,,,,,,,,
,,,,z,0.442,0,100,100,100,1,paints/images/356.jpg,paints/images/137.jpg,101,Ai,1,2020-11-21_22h48.31.078,test3,2020.2.4,MacIntel,60,,,,,,,,,
,,,,m,0.391,0,101,101,101,1,paints/images/274.jpg,paints/images/232.jpg,102,Ai,1,2020-11-21_22h48.31.078,test3,2020.2.4,MacIntel,60,,,,,,,,,
,,,,z,0.309,0,102,102,102,1,paints/images/70.jpg,paints/images/183.jpg,103,Ai,1,2020-11-21_22h48.31.078,test3,2020.2.4,MacIntel,60,,,,,,,,,
,,,,m,0.257,0,103,103,103,1,paints/images/10.jpg,paints/images/393.jpg,104,Ai,1,2020-11-21_22h48.31.078,test3,2020.2.4,MacIntel,60,,,,,,,,,
,,,,z,0.337,0,104,104,104,1,paints/images/378.jpg,paints/images/181.jpg,105,Ai,1,2020-11-21_22h48.31.078,test3,2020.2.4,MacIntel,60,,,,,,,,,
,,,,z,0.392,0,105,105,105,1,paints/images/303.jpg,paints/images/334.jpg,106,Ai,1,2020-11-21_22h48.31.078,test3,2020.2.4,MacIntel,60,,,,,,,,,
,,,,z,0.244,0,106,106,106,1,paints/images/328.jpg,paints/images/344.jpg,107,Ai,1,2020-11-21_22h48.31.078,test3,2020.2.4,MacIntel,60,,,,,,,,,
,,,,z,0.25,0,107,107,107,1,paints/images/397.jpg,paints/images/318.jpg,108,Ai,1,2020-11-21_22h48.31.078,test3,2020.2.4,MacIntel,60,,,,,,,,,
,,,,z,0.197,0,108,108,108,1,paints/images/365.jpg,paints/images/211.jpg,109,Ai,1,2020-11-21_22h48.31.078,test3,2020.2.4,MacIntel,60,,,,,,,,,
,,,,m,0.221,0,109,109,109,1,paints/images/23.jpg,paints/images/46.jpg,110,Ai,1,2020-11-21_22h48.31.078,test3,2020.2.4,MacIntel,60,,,,,,,,,
,,,,z,0.255,0,110,110,110,1,paints/images/304.jpg,paints/images/11.jpg,111,Ai,1,2020-11-21_22h48.31.078,test3,2020.2.4,MacIntel,60,,,,,,,,,
,,,,m,0.218,0,111,111,111,1,paints/images/226.jpg,paints/images/6.jpg,112,Ai,1,2020-11-21_22h48.31.078,test3,2020.2.4,MacIntel,60,,,,,,,,,
,,,,z,0.273,0,112,112,112,1,paints/images/170.jpg,paints/images/262.jpg,113,Ai,1,2020-11-21_22h48.31.078,test3,2020.2.4,MacIntel,60,,,,,,,,,
,,,,m,0.091,0,113,113,113,1,paints/images/259.jpg,paints/images/343.jpg,114,Ai,1,2020-11-21_22h48.31.078,test3,2020.2.4,MacIntel,60,,,,,,,,,
,,,,z,0.372,0,114,114,114,1,paints/images/19.jpg,paints/images/394.jpg,115,Ai,1,2020-11-21_22h48.31.078,test3,2020.2.4,MacIntel,60,,,,,,,,,
,,,,z,0.279,0,115,115,115,1,paints/images/215.jpg,paints/images/19.jpg,116,Ai,1,2020-11-21_22h48.31.078,test3,2020.2.4,MacIntel,60,,,,,,,,,
,,,,m,0.284,0,116,116,116,1,paints/images/52.jpg,paints/images/360.jpg,117,Ai,1,2020-11-21_22h48.31.078,test3,2020.2.4,MacIntel,60,,,,,,,,,
,,,,z,0.248,0,117,117,117,1,paints/images/99.jpg,paints/images/328.jpg,118,Ai,1,2020-11-21_22h48.31.078,test3,2020.2.4,MacIntel,60,,,,,,,,,
,,,,z,0.272,0,118,118,118,1,paints/images/150.jpg,paints/images/164.jpg,119,Ai,1,2020-11-21_22h48.31.078,test3,2020.2.4,MacIntel,60,,,,,,,,,
,,,,z,0.194,0,119,119,119,1,paints/images/172.jpg,paints/images/213.jpg,120,Ai,1,2020-11-21_22h48.31.078,test3,2020.2.4,MacIntel,60,,,,,,,,,
,,,,m,0.172,0,120,120,120,1,paints/images/50.jpg,paints/images/101.jpg,121,Ai,1,2020-11-21_22h48.31.078,test3,2020.2.4,MacIntel,60,,,,,,,,,
,,,,m,0.252,0,121,121,121,1,paints/images/358.jpg,paints/images/354.jpg,122,Ai,1,2020-11-21_22h48.31.078,test3,2020.2.4,MacIntel,60,,,,,,,,,
,,,,m,0.178,0,122,122,122,1,paints/images/257.jpg,paints/images/265.jpg,123,Ai,1,2020-11-21_22h48.31.078,test3,2020.2.4,MacIntel,60,,,,,,,,,
,,,,z,0.309,0,123,123,123,1,paints/images/91.jpg,paints/images/342.jpg,124,Ai,1,2020-11-21_22h48.31.078,test3,2020.2.4,MacIntel,60,,,,,,,,,
,,,,m,0.262,0,124,124,124,1,paints/images/168.jpg,paints/images/132.jpg,125,Ai,1,2020-11-21_22h48.31.078,test3,2020.2.4,MacIntel,60,,,,,,,,,
,,,,m,0.27,0,125,125,125,1,paints/images/280.jpg,paints/images/98.jpg,126,Ai,1,2020-11-21_22h48.31.078,test3,2020.2.4,MacIntel,60,,,,,,,,,
,,,,z,0.226,0,126,126,126,1,paints/images/261.jpg,paints/images/40.jpg,127,Ai,1,2020-11-21_22h48.31.078,test3,2020.2.4,MacIntel,60,,,,,,,,,
,,,,m,0.271,0,127,127,127,1,paints/images/333.jpg,paints/images/66.jpg,128,Ai,1,2020-11-21_22h48.31.078,test3,2020.2.4,MacIntel,60,,,,,,,,,
,,,,z,0.221,0,128,128,128,1,paints/images/96.jpg,paints/images/82.jpg,129,Ai,1,2020-11-21_22h48.31.078,test3,2020.2.4,MacIntel,60,,,,,,,,,
,,,,z,0.207,0,129,129,129,1,paints/images/32.jpg,paints/images/325.jpg,130,Ai,1,2020-11-21_22h48.31.078,test3,2020.2.4,MacIntel,60,,,,,,,,,
,,,,z,0.183,0,130,130,130,1,paints/images/268.jpg,paints/images/167.jpg,131,Ai,1,2020-11-21_22h48.31.078,test3,2020.2.4,MacIntel,60,,,,,,,,,
,,,,m,0.152,0,131,131,131,1,paints/images/162.jpg,paints/images/25.jpg,132,Ai,1,2020-11-21_22h48.31.078,test3,2020.2.4,MacIntel,60,,,,,,,,,
,,,,z,0.241,0,132,132,132,1,paints/images/53.jpg,paints/images/305.jpg,133,Ai,1,2020-11-21_22h48.31.078,test3,2020.2.4,MacIntel,60,,,,,,,,,
,,,,m,0.307,0,133,133,133,1,paints/images/263.jpg,paints/images/209.jpg,134,Ai,1,2020-11-21_22h48.31.078,test3,2020.2.4,MacIntel,60,,,,,,,,,
,,,,m,0.513,0,134,134,134,1,paints/images/92.jpg,paints/images/364.jpg,135,Ai,1,2020-11-21_22h48.31.078,test3,2020.2.4,MacIntel,60,,,,,,,,,
,,,,m,0.247,0,135,135,135,1,paints/images/61.jpg,paints/images/291.jpg,136,Ai,1,2020-11-21_22h48.31.078,test3,2020.2.4,MacIntel,60,,,,,,,,,
,,,,z,0.291,0,136,136,136,1,paints/images/293.jpg,paints/images/283.jpg,137,Ai,1,2020-11-21_22h48.31.078,test3,2020.2.4,MacIntel,60,,,,,,,,,
,,,,z,0.21,0,137,137,137,1,paints/images/229.jpg,paints/images/173.jpg,138,Ai,1,2020-11-21_22h48.31.078,test3,2020.2.4,MacIntel,60,,,,,,,,,
,,,,m,0.201,0,138,138,138,1,paints/images/41.jpg,paints/images/133.jpg,139,Ai,1,2020-11-21_22h48.31.078,test3,2020.2.4,MacIntel,60,,,,,,,,,
,,,,m,0.258,0,139,139,139,1,paints/images/182.jpg,paints/images/348.jpg,140,Ai,1,2020-11-21_22h48.31.078,test3,2020.2.4,MacIntel,60,,,,,,,,,
,,,,z,0.184,0,140,140,140,1,paints/images/379.jpg,paints/images/228.jpg,141,Ai,1,2020-11-21_22h48.31.078,test3,2020.2.4,MacIntel,60,,,,,,,,,
,,,,m,0.206,0,141,141,141,1,paints/images/188.jpg,paints/images/13.jpg,142,Ai,1,2020-11-21_22h48.31.078,test3,2020.2.4,MacIntel,60,,,,,,,,,
,,,,z,0.263,0,142,142,142,1,paints/images/40.jpg,paints/images/329.jpg,143,Ai,1,2020-11-21_22h48.31.078,test3,2020.2.4,MacIntel,60,,,,,,,,,
,,,,m,0.143,0,143,143,143,1,paints/images/323.jpg,paints/images/165.jpg,144,Ai,1,2020-11-21_22h48.31.078,test3,2020.2.4,MacIntel,60,,,,,,,,,
,,,,z,0.31,0,144,144,144,1,paints/images/78.jpg,paints/images/407.jpg,145,Ai,1,2020-11-21_22h48.31.078,test3,2020.2.4,MacIntel,60,,,,,,,,,
,,,,z,0.29,0,145,145,145,1,paints/images/242.jpg,paints/images/75.jpg,146,Ai,1,2020-11-21_22h48.31.078,test3,2020.2.4,MacIntel,60,,,,,,,,,
,,,,m,0.457,0,146,146,146,1,paints/images/62.jpg,paints/images/187.jpg,147,Ai,1,2020-11-21_22h48.31.078,test3,2020.2.4,MacIntel,60,,,,,,,,,
,,,,z,0.306,0,147,147,147,1,paints/images/131.jpg,paints/images/285.jpg,148,Ai,1,2020-11-21_22h48.31.078,test3,2020.2.4,MacIntel,60,,,,,,,,,
,,,,m,0.226,0,148,148,148,1,paints/images/241.jpg,paints/images/97.jpg,149,Ai,1,2020-11-21_22h48.31.078,test3,2020.2.4,MacIntel,60,,,,,,,,,
,,,,z,0.264,0,149,149,149,1,paints/images/132.jpg,paints/images/289.jpg,150,Ai,1,2020-11-21_22h48.31.078,test3,2020.2.4,MacIntel,60,,,,,,,,,
,,,,m,0.124,0,150,150,150,1,paints/images/185.jpg,paints/images/54.jpg,151,Ai,1,2020-11-21_22h48.31.078,test3,2020.2.4,MacIntel,60,,,,,,,,,
,,,,z,0.256,0,151,151,151,1,paints/images/272.jpg,paints/images/51.jpg,152,Ai,1,2020-11-21_22h48.31.078,test3,2020.2.4,MacIntel,60,,,,,,,,,
,,,,m,0.139,0,152,152,152,1,paints/images/403.jpg,paints/images/71.jpg,153,Ai,1,2020-11-21_22h48.31.078,test3,2020.2.4,MacIntel,60,,,,,,,,,
,,,,m,0.268,0,153,153,153,1,paints/images/202.jpg,paints/images/219.jpg,154,Ai,1,2020-11-21_22h48.31.078,test3,2020.2.4,MacIntel,60,,,,,,,,,
,,,,z,0.041,0,154,154,154,1,paints/images/34.jpg,paints/images/271.jpg,155,Ai,1,2020-11-21_22h48.31.078,test3,2020.2.4,MacIntel,60,,,,,,,,,
,,,,m,0.271,0,155,155,155,1,paints/images/296.jpg,paints/images/90.jpg,156,Ai,1,2020-11-21_22h48.31.078,test3,2020.2.4,MacIntel,60,,,,,,,,,
,,,,m,0.238,0,156,156,156,1,paints/images/25.jpg,paints/images/338.jpg,157,Ai,1,2020-11-21_22h48.31.078,test3,2020.2.4,MacIntel,60,,,,,,,,,
,,,,z,0.209,0,157,157,157,1,paints/images/396.jpg,paints/images/78.jpg,158,Ai,1,2020-11-21_22h48.31.078,test3,2020.2.4,MacIntel,60,,,,,,,,,
,,,,z,0.569,0,158,158,158,1,paints/images/72.jpg,paints/images/111.jpg,159,Ai,1,2020-11-21_22h48.31.078,test3,2020.2.4,MacIntel,60,,,,,,,,,
,,,,z,0.322,0,159,159,159,1,paints/images/164.jpg,paints/images/16.jpg,160,Ai,1,2020-11-21_22h48.31.078,test3,2020.2.4,MacIntel,60,,,,,,,,,
,,,,m,0.001,0,160,160,160,1,paints/images/387.jpg,paints/images/244.jpg,161,Ai,1,2020-11-21_22h48.31.078,test3,2020.2.4,MacIntel,60,,,,,,,,,
,,,,m,0.225,0,161,161,161,1,paints/images/64.jpg,paints/images/260.jpg,162,Ai,1,2020-11-21_22h48.31.078,test3,2020.2.4,MacIntel,60,,,,,,,,,
,,,,z,0.122,0,162,162,162,1,paints/images/160.jpg,paints/images/63.jpg,163,Ai,1,2020-11-21_22h48.31.078,test3,2020.2.4,MacIntel,60,,,,,,,,,
,,,,m,0.186,0,163,163,163,1,paints/images/3.jpg,paints/images/282.jpg,164,Ai,1,2020-11-21_22h48.31.078,test3,2020.2.4,MacIntel,60,,,,,,,,,
,,,,z,0.101,0,164,164,164,1,paints/images/307.jpg,paints/images/152.jpg,165,Ai,1,2020-11-21_22h48.31.078,test3,2020.2.4,MacIntel,60,,,,,,,,,
,,,,m,0.124,0,165,165,165,1,paints/images/311.jpg,paints/images/123.jpg,166,Ai,1,2020-11-21_22h48.31.078,test3,2020.2.4,MacIntel,60,,,,,,,,,
,,,,m,0.244,0,166,166,166,1,paints/images/143.jpg,paints/images/286.jpg,167,Ai,1,2020-11-21_22h48.31.078,test3,2020.2.4,MacIntel,60,,,,,,,,,
,,,,m,0.212,0,167,167,167,1,paints/images/97.jpg,paints/images/216.jpg,168,Ai,1,2020-11-21_22h48.31.078,test3,2020.2.4,MacIntel,60,,,,,,,,,
,,,,z,0.161,0,168,168,168,1,paints/images/395.jpg,paints/images/170.jpg,169,Ai,1,2020-11-21_22h48.31.078,test3,2020.2.4,MacIntel,60,,,,,,,,,
,,,,z,0.211,0,169,169,169,1,paints/images/151.jpg,paints/images/26.jpg,170,Ai,1,2020-11-21_22h48.31.078,test3,2020.2.4,MacIntel,60,,,,,,,,,
,,,,m,0.177,0,170,170,170,1,paints/images/51.jpg,paints/images/32.jpg,171,Ai,1,2020-11-21_22h48.31.078,test3,2020.2.4,MacIntel,60,,,,,,,,,
,,,,z,0.154,0,171,171,171,1,paints/images/305.jpg,paints/images/176.jpg,172,Ai,1,2020-11-21_22h48.31.078,test3,2020.2.4,MacIntel,60,,,,,,,,,
,,,,m,0.201,0,172,172,172,1,paints/images/137.jpg,paints/images/48.jpg,173,Ai,1,2020-11-21_22h48.31.078,test3,2020.2.4,MacIntel,60,,,,,,,,,
,,,,z,0.228,0,173,173,173,1,paints/images/65.jpg,paints/images/243.jpg,174,Ai,1,2020-11-21_22h48.31.078,test3,2020.2.4,MacIntel,60,,,,,,,,,
,,,,m,0.118,0,174,174,174,1,paints/images/115.jpg,paints/images/210.jpg,175,Ai,1,2020-11-21_22h48.31.078,test3,2020.2.4,MacIntel,60,,,,,,,,,
,,,,z,0.123,0,175,175,175,1,paints/images/310.jpg,paints/images/58.jpg,176,Ai,1,2020-11-21_22h48.31.078,test3,2020.2.4,MacIntel,60,,,,,,,,,
,,,,m,0.124,0,176,176,176,1,paints/images/1.jpg,paints/images/112.jpg,177,Ai,1,2020-11-21_22h48.31.078,test3,2020.2.4,MacIntel,60,,,,,,,,,
,,,,z,0.121,0,177,177,177,1,paints/images/125.jpg,paints/images/17.jpg,178,Ai,1,2020-11-21_22h48.31.078,test3,2020.2.4,MacIntel,60,,,,,,,,,
,,,,z,0.267,0,178,178,178,1,paints/images/279.jpg,paints/images/166.jpg,179,Ai,1,2020-11-21_22h48.31.078,test3,2020.2.4,MacIntel,60,,,,,,,,,
,,,,z,0.186,0,179,179,179,1,paints/images/316.jpg,paints/images/306.jpg,180,Ai,1,2020-11-21_22h48.31.078,test3,2020.2.4,MacIntel,60,,,,,,,,,
,,,,z,0.138,0,180,180,180,1,paints/images/22.jpg,paints/images/214.jpg,181,Ai,1,2020-11-21_22h48.31.078,test3,2020.2.4,MacIntel,60,,,,,,,,,
,,,,m,0.144,0,181,181,181,1,paints/images/54.jpg,paints/images/235.jpg,182,Ai,1,2020-11-21_22h48.31.078,test3,2020.2.4,MacIntel,60,,,,,,,,,
,,,,z,0.214,0,182,182,182,1,paints/images/225.jpg,paints/images/160.jpg,183,Ai,1,2020-11-21_22h48.31.078,test3,2020.2.4,MacIntel,60,,,,,,,,,
,,,,m,0.207,0,183,183,183,1,paints/images/339.jpg,paints/images/59.jpg,184,Ai,1,2020-11-21_22h48.31.078,test3,2020.2.4,MacIntel,60,,,,,,,,,
,,,,z,0.111,0,184,184,184,1,paints/images/409.jpg,paints/images/180.jpg,185,Ai,1,2020-11-21_22h48.31.078,test3,2020.2.4,MacIntel,60,,,,,,,,,
,,,,m,0.194,0,185,185,185,1,paints/images/145.jpg,paints/images/115.jpg,186,Ai,1,2020-11-21_22h48.31.078,test3,2020.2.4,MacIntel,60,,,,,,,,,
,,,,z,0.146,0,186,186,186,1,paints/images/147.jpg,paints/images/37.jpg,187,Ai,1,2020-11-21_22h48.31.078,test3,2020.2.4,MacIntel,60,,,,,,,,,
,,,,m,0.124,0,187,187,187,1,paints/images/288.jpg,paints/images/64.jpg,188,Ai,1,2020-11-21_22h48.31.078,test3,2020.2.4,MacIntel,60,,,,,,,,,
,,,,z,0.123,0,188,188,188,1,paints/images/235.jpg,paints/images/201.jpg,189,Ai,1,2020-11-21_22h48.31.078,test3,2020.2.4,MacIntel,60,,,,,,,,,
,,,,m,0.146,0,189,189,189,1,paints/images/313.jpg,paints/images/2.jpg,190,Ai,1,2020-11-21_22h48.31.078,test3,2020.2.4,MacIntel,60,,,,,,,,,
,,,,z,0.173,0,190,190,190,1,paints/images/329.jpg,paints/images/38.jpg,191,Ai,1,2020-11-21_22h48.31.078,test3,2020.2.4,MacIntel,60,,,,,,,,,
,,,,z,0.227,0,191,191,191,1,paints/images/9.jpg,paints/images/241.jpg,192,Ai,1,2020-11-21_22h48.31.078,test3,2020.2.4,MacIntel,60,,,,,,,,,
,,,,m,0.16,0,192,192,192,1,paints/images/364.jpg,paints/images/44.jpg,193,Ai,1,2020-11-21_22h48.31.078,test3,2020.2.4,MacIntel,60,,,,,,,,,
,,,,z,0.122,0,193,193,193,1,paints/images/14.jpg,paints/images/109.jpg,194,Ai,1,2020-11-21_22h48.31.078,test3,2020.2.4,MacIntel,60,,,,,,,,,
,,,,m,0.153,0,194,194,194,1,paints/images/0.jpg,paints/images/14.jpg,195,Ai,1,2020-11-21_22h48.31.078,test3,2020.2.4,MacIntel,60,,,,,,,,,
,,,,z,0.094,0,195,195,195,1,paints/images/398.jpg,paints/images/247.jpg,196,Ai,1,2020-11-21_22h48.31.078,test3,2020.2.4,MacIntel,60,,,,,,,,,
,,,,m,0.198,0,196,196,196,1,paints/images/377.jpg,paints/images/237.jpg,197,Ai,1,2020-11-21_22h48.31.078,test3,2020.2.4,MacIntel,60,,,,,,,,,
,,,,z,0.209,0,197,197,197,1,paints/images/246.jpg,paints/images/184.jpg,198,Ai,1,2020-11-21_22h48.31.078,test3,2020.2.4,MacIntel,60,,,,,,,,,
,,,,m,0.176,0,198,198,198,1,paints/images/299.jpg,paints/images/301.jpg,199,Ai,1,2020-11-21_22h48.31.078,test3,2020.2.4,MacIntel,60,,,,,,,,,
,,,,z,0.409,0,199,199,199,1,paints/images/116.jpg,paints/images/148.jpg,200,Ai,1,2020-11-21_22h48.31.078,test3,2020.2.4,MacIntel,60,,,,,,,,,
,,,,z,0.548,0,0,0,0,1,paints/images/267.jpg,paints/images/336.jpg,1,Ai,1,2020-11-21_22h48.31.078,test3,2020.2.4,MacIntel,60,space,0.692,z,0.548,0,0,0,0,1
,,,,m,0.265,0,1,1,1,1,paints/images/6.jpg,paints/images/182.jpg,2,Ai,1,2020-11-21_22h48.31.078,test3,2020.2.4,MacIntel,60,,,m,0.265,0,1,1,1,1
,,,,m,0.208,0,2,2,2,1,paints/images/348.jpg,paints/images/105.jpg,3,Ai,1,2020-11-21_22h48.31.078,test3,2020.2.4,MacIntel,60,,,m,0.208,0,2,2,2,1
,,,,m,0.17,0,3,3,3,1,paints/images/404.jpg,paints/images/372.jpg,4,Ai,1,2020-11-21_22h48.31.078,test3,2020.2.4,MacIntel,60,,,m,0.17,0,3,3,3,1
,,,,z,0.127,0,4,4,4,1,paints/images/324.jpg,paints/images/134.jpg,5,Ai,1,2020-11-21_22h48.31.078,test3,2020.2.4,MacIntel,60,,,z,0.127,0,4,4,4,1
,,,,m,0.196,0,5,5,5,1,paints/images/278.jpg,paints/images/269.jpg,6,Ai,1,2020-11-21_22h48.31.078,test3,2020.2.4,MacIntel,60,,,m,0.196,0,5,5,5,1
,,,,m,0.159,0,6,6,6,1,paints/images/237.jpg,paints/images/375.jpg,7,Ai,1,2020-11-21_22h48.31.078,test3,2020.2.4,MacIntel,60,,,m,0.159,0,6,6,6,1
,,,,z,0.109,0,7,7,7,1,paints/images/109.jpg,paints/images/224.jpg,8,Ai,1,2020-11-21_22h48.31.078,test3,2020.2.4,MacIntel,60,,,z,0.109,0,7,7,7,1
,,,,z,0.223,0,8,8,8,1,paints/images/318.jpg,paints/images/127.jpg,9,Ai,1,2020-11-21_22h48.31.078,test3,2020.2.4,MacIntel,60,,,z,0.223,0,8,8,8,1
,,,,z,0.183,0,9,9,9,1,paints/images/120.jpg,paints/images/254.jpg,10,Ai,1,2020-11-21_22h48.31.078,test3,2020.2.4,MacIntel,60,,,z,0.183,0,9,9,9,1
,,,,z,0.155,0,10,10,10,1,paints/images/86.jpg,paints/images/67.jpg,11,Ai,1,2020-11-21_22h48.31.078,test3,2020.2.4,MacIntel,60,,,z,0.155,0,10,10,10,1
,,,,z,0.173,0,11,11,11,1,paints/images/302.jpg,paints/images/245.jpg,12,Ai,1,2020-11-21_22h48.31.078,test3,2020.2.4,MacIntel,60,,,z,0.173,0,11,11,11,1
,,,,m,0.161,0,12,12,12,1,paints/images/94.jpg,paints/images/242.jpg,13,Ai,1,2020-11-21_22h48.31.078,test3,2020.2.4,MacIntel,60,,,m,0.161,0,12,12,12,1
,,,,z,0.261,0,13,13,13,1,paints/images/295.jpg,paints/images/72.jpg,14,Ai,1,2020-11-21_22h48.31.078,test3,2020.2.4,MacIntel,60,,,z,0.261,0,13,13,13,1
,,,,m,0.15,0,14,14,14,1,paints/images/227.jpg,paints/images/175.jpg,15,Ai,1,2020-11-21_22h48.31.078,test3,2020.2.4,MacIntel,60,,,m,0.15,0,14,14,14,1
,,,,m,0.173,0,15,15,15,1,paints/images/26.jpg,paints/images/203.jpg,16,Ai,1,2020-11-21_22h48.31.078,test3,2020.2.4,MacIntel,60,,,m,0.173,0,15,15,15,1
,,,,z,0.133,0,16,16,16,1,paints/images/45.jpg,paints/images/272.jpg,17,Ai,1,2020-11-21_22h48.31.078,test3,2020.2.4,MacIntel,60,,,z,0.133,0,16,16,16,1
,,,,m,0.115,0,17,17,17,1,paints/images/410.jpg,paints/images/185.jpg,18,Ai,1,2020-11-21_22h48.31.078,test3,2020.2.4,MacIntel,60,,,m,0.115,0,17,17,17,1
,,,,z,0.179,0,18,18,18,1,paints/images/380.jpg,paints/images/0.jpg,19,Ai,1,2020-11-21_22h48.31.078,test3,2020.2.4,MacIntel,60,,,z,0.179,0,18,18,18,1
,,,,z,0.234,0,19,19,19,1,paints/images/370.jpg,paints/images/106.jpg,20,Ai,1,2020-11-21_22h48.31.078,test3,2020.2.4,MacIntel,60,,,z,0.234,0,19,19,19,1
,,,,z,0.176,0,20,20,20,1,paints/images/102.jpg,paints/images/309.jpg,21,Ai,1,2020-11-21_22h48.31.078,test3,2020.2.4,MacIntel,60,,,z,0.176,0,20,20,20,1
,,,,z,0.183,0,21,21,21,1,paints/images/167.jpg,paints/images/299.jpg,22,Ai,1,2020-11-21_22h48.31.078,test3,2020.2.4,MacIntel,60,,,z,0.183,0,21,21,21,1
,,,,z,0.185,0,22,22,22,1,paints/images/290.jpg,paints/images/192.jpg,23,Ai,1,2020-11-21_22h48.31.078,test3,2020.2.4,MacIntel,60,,,z,0.185,0,22,22,22,1
,,,,m,0.155,0,23,23,23,1,paints/images/82.jpg,paints/images/353.jpg,24,Ai,1,2020-11-21_22h48.31.078,test3,2020.2.4,MacIntel,60,,,m,0.155,0,23,23,23,1
,,,,z,0.11,0,24,24,24,1,paints/images/75.jpg,paints/images/404.jpg,25,Ai,1,2020-11-21_22h48.31.078,test3,2020.2.4,MacIntel,60,,,z,0.11,0,24,24,24,1
,,,,m,0.167,0,25,25,25,1,paints/images/117.jpg,paints/images/100.jpg,26,Ai,1,2020-11-21_22h48.31.078,test3,2020.2.4,MacIntel,60,,,m,0.167,0,25,25,25,1
,,,,z,0.132,0,26,26,26,1,paints/images/200.jpg,paints/images/378.jpg,27,Ai,1,2020-11-21_22h48.31.078,test3,2020.2.4,MacIntel,60,,,z,0.132,0,26,26,26,1
,,,,m,0.149,0,27,27,27,1,paints/images/371.jpg,paints/images/57.jpg,28,Ai,1,2020-11-21_22h48.31.078,test3,2020.2.4,MacIntel,60,,,m,0.149,0,27,27,27,1
,,,,z,0.124,0,28,28,28,1,paints/images/87.jpg,paints/images/302.jpg,29,Ai,1,2020-11-21_22h48.31.078,test3,2020.2.4,MacIntel,60,,,z,0.124,0,28,28,28,1
,,,,m,0.152,0,29,29,29,1,paints/images/208.jpg,paints/images/39.jpg,30,Ai,1,2020-11-21_22h48.31.078,test3,2020.2.4,MacIntel,60,,,m,0.152,0,29,29,29,1
,,,,z,0.096,0,30,30,30,1,paints/images/198.jpg,paints/images/200.jpg,31,Ai,1,2020-11-21_22h48.31.078,test3,2020.2.4,MacIntel,60,,,z,0.096,0,30,30,30,1
,,,,m,0.157,0,31,31,31,1,paints/images/43.jpg,paints/images/42.jpg,32,Ai,1,2020-11-21_22h48.31.078,test3,2020.2.4,MacIntel,60,,,m,0.157,0,31,31,31,1
,,,,z,0.079,0,32,32,32,1,paints/images/286.jpg,paints/images/376.jpg,33,Ai,1,2020-11-21_22h48.31.078,test3,2020.2.4,MacIntel,60,,,z,0.079,0,32,32,32,1
,,,,m,0.155,0,33,33,33,1,paints/images/275.jpg,paints/images/76.jpg,34,Ai,1,2020-11-21_22h48.31.078,test3,2020.2.4,MacIntel,60,,,m,0.155,0,33,33,33,1
,,,,z,0.14,0,34,34,34,1,paints/images/138.jpg,paints/images/129.jpg,35,Ai,1,2020-11-21_22h48.31.078,test3,2020.2.4,MacIntel,60,,,z,0.14,0,34,34,34,1
,,,,m,0.141,0,35,35,35,1,paints/images/386.jpg,paints/images/366.jpg,36,Ai,1,2020-11-21_22h48.31.078,test3,2020.2.4,MacIntel,60,,,m,0.141,0,35,35,35,1
,,,,z,0.199,0,36,36,36,1,paints/images/232.jpg,paints/images/215.jpg,37,Ai,1,2020-11-21_22h48.31.078,test3,2020.2.4,MacIntel,60,,,z,0.199,0,36,36,36,1
,,,,m,0.169,0,37,37,37,1,paints/images/122.jpg,paints/images/199.jpg,38,Ai,1,2020-11-21_22h48.31.078,test3,2020.2.4,MacIntel,60,,,m,0.169,0,37,37,37,1
,,,,z,0.236,0,38,38,38,1,paints/images/388.jpg,paints/images/169.jpg,39,Ai,1,2020-11-21_22h48.31.078,test3,2020.2.4,MacIntel,60,,,z,0.236,0,38,38,38,1
,,,,z,0.226,0,39,39,39,1,paints/images/399.jpg,paints/images/229.jpg,40,Ai,1,2020-11-21_22h48.31.078,test3,2020.2.4,MacIntel,60,,,z,0.226,0,39,39,39,1
,,,,z,0.156,0,40,40,40,1,paints/images/300.jpg,paints/images/1.jpg,41,Ai,1,2020-11-21_22h48.31.078,test3,2020.2.4,MacIntel,60,,,z,0.156,0,40,40,40,1
,,,,z,0.164,0,41,41,41,1,paints/images/195.jpg,paints/images/399.jpg,42,Ai,1,2020-11-21_22h48.31.078,test3,2020.2.4,MacIntel,60,,,z,0.164,0,41,41,41,1
,,,,z,0.166,0,42,42,42,1,paints/images/281.jpg,paints/images/277.jpg,43,Ai,1,2020-11-21_22h48.31.078,test3,2020.2.4,MacIntel,60,,,z,0.166,0,42,42,42,1
,,,,z,0.157,0,43,43,43,1,paints/images/103.jpg,paints/images/288.jpg,44,Ai,1,2020-11-21_22h48.31.078,test3,2020.2.4,MacIntel,60,,,z,0.157,0,43,43,43,1
,,,,z,0.168,0,44,44,44,1,paints/images/297.jpg,paints/images/222.jpg,45,Ai,1,2020-11-21_22h48.31.078,test3,2020.2.4,MacIntel,60,,,z,0.168,0,44,44,44,1
,,,,m,0.243,0,45,45,45,1,paints/images/394.jpg,paints/images/258.jpg,46,Ai,1,2020-11-21_22h48.31.078,test3,2020.2.4,MacIntel,60,,,m,0.243,0,45,45,45,1
,,,,m,0.156,0,46,46,46,1,paints/images/73.jpg,paints/images/49.jpg,47,Ai,1,2020-11-21_22h48.31.078,test3,2020.2.4,MacIntel,60,,,m,0.156,0,46,46,46,1
,,,,z,0.137,0,47,47,47,1,paints/images/112.jpg,paints/images/80.jpg,48,Ai,1,2020-11-21_22h48.31.078,test3,2020.2.4,MacIntel,60,,,z,0.137,0,47,47,47,1
,,,,m,0.135,0,48,48,48,1,paints/images/245.jpg,paints/images/358.jpg,49,Ai,1,2020-11-21_22h48.31.078,test3,2020.2.4,MacIntel,60,,,m,0.135,0,48,48,48,1
,,,,z,0.142,0,49,49,49,1,paints/images/347.jpg,paints/images/143.jpg,50,Ai,1,2020-11-21_22h48.31.078,test3,2020.2.4,MacIntel,60,,,z,0.142,0,49,49,49,1
,,,,m,0.124,0,50,50,50,1,paints/images/352.jpg,paints/images/145.jpg,51,Ai,1,2020-11-21_22h48.31.078,test3,2020.2.4,MacIntel,60,,,m,0.124,0,50,50,50,1
,,,,z,0.095,0,51,51,51,1,paints/images/69.jpg,paints/images/162.jpg,52,Ai,1,2020-11-21_22h48.31.078,test3,2020.2.4,MacIntel,60,,,z,0.095,0,51,51,51,1
,,,,m,0.127,0,52,52,52,1,paints/images/381.jpg,paints/images/202.jpg,53,Ai,1,2020-11-21_22h48.31.078,test3,2020.2.4,MacIntel,60,,,m,0.127,0,52,52,52,1
,,,,z,0.103,0,53,53,53,1,paints/images/361.jpg,paints/images/340.jpg,54,Ai,1,2020-11-21_22h48.31.078,test3,2020.2.4,MacIntel,60,,,z,0.103,0,53,53,53,1
,,,,m,0.117,0,54,54,54,1,paints/images/217.jpg,paints/images/9.jpg,55,Ai,1,2020-11-21_22h48.31.078,test3,2020.2.4,MacIntel,60,,,m,0.117,0,54,54,54,1
,,,,z,0.171,0,55,55,55,1,paints/images/8.jpg,paints/images/409.jpg,56,Ai,1,2020-11-21_22h48.31.078,test3,2020.2.4,MacIntel,60,,,z,0.171,0,55,55,55,1
,,,,m,0.15,0,56,56,56,1,paints/images/59.jpg,paints/images/33.jpg,57,Ai,1,2020-11-21_22h48.31.078,test3,2020.2.4,MacIntel,60,,,m,0.15,0,56,56,56,1
,,,,m,0.175,0,57,57,57,1,paints/images/21.jpg,paints/images/311.jpg,58,Ai,1,2020-11-21_22h48.31.078,test3,2020.2.4,MacIntel,60,,,m,0.175,0,57,57,57,1
,,,,m,0.159,0,58,58,58,1,paints/images/408.jpg,paints/images/31.jpg,59,Ai,1,2020-11-21_22h48.31.078,test3,2020.2.4,MacIntel,60,,,m,0.159,0,58,58,58,1
,,,,z,0.13,0,59,59,59,1,paints/images/98.jpg,paints/images/3.jpg,60,Ai,1,2020-11-21_22h48.31.078,test3,2020.2.4,MacIntel,60,,,z,0.13,0,59,59,59,1
,,,,m,0.16,0,60,60,60,1,paints/images/336.jpg,paints/images/138.jpg,61,Ai,1,2020-11-21_22h48.31.078,test3,2020.2.4,MacIntel,60,,,m,0.16,0,60,60,60,1
,,,,m,0.231,0,61,61,61,1,paints/images/186.jpg,paints/images/395.jpg,62,Ai,1,2020-11-21_22h48.31.078,test3,2020.2.4,MacIntel,60,,,m,0.231,0,61,61,61,1
,,,,m,0.192,0,62,62,62,1,paints/images/76.jpg,paints/images/405.jpg,63,Ai,1,2020-11-21_22h48.31.078,test3,2020.2.4,MacIntel,60,,,m,0.192,0,62,62,62,1
,,,,m,0.124,0,63,63,63,1,paints/images/171.jpg,paints/images/381.jpg,64,Ai,1,2020-11-21_22h48.31.078,test3,2020.2.4,MacIntel,60,,,m,0.124,0,63,63,63,1
,,,,z,0.143,0,64,64,64,1,paints/images/220.jpg,paints/images/70.jpg,65,Ai,1,2020-11-21_22h48.31.078,test3,2020.2.4,MacIntel,60,,,z,0.143,0,64,64,64,1
,,,,m,0.139,0,65,65,65,1,paints/images/337.jpg,paints/images/339.jpg,66,Ai,1,2020-11-21_22h48.31.078,test3,2020.2.4,MacIntel,60,,,m,0.139,0,65,65,65,1
,,,,m,0.136,0,66,66,66,1,paints/images/258.jpg,paints/images/85.jpg,67,Ai,1,2020-11-21_22h48.31.078,test3,2020.2.4,MacIntel,60,,,m,0.136,0,66,66,66,1
,,,,m,0.123,0,67,67,67,1,paints/images/273.jpg,paints/images/113.jpg,68,Ai,1,2020-11-21_22h48.31.078,test3,2020.2.4,MacIntel,60,,,m,0.123,0,67,67,67,1
,,,,z,0.049,0,68,68,68,1,paints/images/353.jpg,paints/images/368.jpg,69,Ai,1,2020-11-21_22h48.31.078,test3,2020.2.4,MacIntel,60,,,z,0.049,0,68,68,68,1
,,,,z,0.252,0,69,69,69,1,paints/images/187.jpg,paints/images/86.jpg,70,Ai,1,2020-11-21_22h48.31.078,test3,2020.2.4,MacIntel,60,,,z,0.252,0,69,69,69,1
,,,,z,0.167,0,70,70,70,1,paints/images/176.jpg,paints/images/193.jpg,71,Ai,1,2020-11-21_22h48.31.078,test3,2020.2.4,MacIntel,60,,,z,0.167,0,70,70,70,1
,,,,m,0.209,0,71,71,71,1,paints/images/175.jpg,paints/images/194.jpg,72,Ai,1,2020-11-21_22h48.31.078,test3,2020.2.4,MacIntel,60,,,m,0.209,0,71,71,71,1
,,,,z,0.148,0,72,72,72,1,paints/images/407.jpg,paints/images/81.jpg,73,Ai,1,2020-11-21_22h48.31.078,test3,2020.2.4,MacIntel,60,,,z,0.148,0,72,72,72,1
,,,,m,0.138,0,73,73,73,1,paints/images/276.jpg,paints/images/77.jpg,74,Ai,1,2020-11-21_22h48.31.078,test3,2020.2.4,MacIntel,60,,,m,0.138,0,73,73,73,1
,,,,z,0.109,0,74,74,74,1,paints/images/291.jpg,paints/images/314.jpg,75,Ai,1,2020-11-21_22h48.31.078,test3,2020.2.4,MacIntel,60,,,z,0.109,0,74,74,74,1
,,,,z,0.177,0,75,75,75,1,paints/images/127.jpg,paints/images/36.jpg,76,Ai,1,2020-11-21_22h48.31.078,test3,2020.2.4,MacIntel,60,,,z,0.177,0,75,75,75,1
,,,,z,0.167,0,76,76,76,1,paints/images/372.jpg,paints/images/161.jpg,77,Ai,1,2020-11-21_22h48.31.078,test3,2020.2.4,MacIntel,60,,,z,0.167,0,76,76,76,1
,,,,z,0.165,0,77,77,77,1,paints/images/283.jpg,paints/images/350.jpg,78,Ai,1,2020-11-21_22h48.31.078,test3,2020.2.4,MacIntel,60,,,z,0.165,0,77,77,77,1
,,,,m,0.068,0,78,78,78,1,paints/images/106.jpg,paints/images/68.jpg,79,Ai,1,2020-11-21_22h48.31.078,test3,2020.2.4,MacIntel,60,,,m,0.068,0,78,78,78,1
,,,,z,0.152,0,79,79,79,1,paints/images/224.jpg,paints/images/266.jpg,80,Ai,1,2020-11-21_22h48.31.078,test3,2020.2.4,MacIntel,60,,,z,0.152,0,79,79,79,1
,,,,m,0.15,0,80,80,80,1,paints/images/375.jpg,paints/images/264.jpg,81,Ai,1,2020-11-21_22h48.31.078,test3,2020.2.4,MacIntel,60,,,m,0.15,0,80,80,80,1
,,,,z,0.129,0,81,81,81,1,paints/images/47.jpg,paints/images/87.jpg,82,Ai,1,2020-11-21_22h48.31.078,test3,2020.2.4,MacIntel,60,,,z,0.129,0,81,81,81,1
,,,,m,0.126,0,82,82,82,1,paints/images/38.jpg,paints/images/298.jpg,83,Ai,1,2020-11-21_22h48.31.078,test3,2020.2.4,MacIntel,60,,,m,0.126,0,82,82,82,1
,,,,m,0.21,0,83,83,83,1,paints/images/161.jpg,paints/images/28.jpg,84,Ai,1,2020-11-21_22h48.31.078,test3,2020.2.4,MacIntel,60,,,m,0.21,0,83,83,83,1
,,,,z,0.156,0,84,84,84,1,paints/images/298.jpg,paints/images/345.jpg,85,Ai,1,2020-11-21_22h48.31.078,test3,2020.2.4,MacIntel,60,,,z,0.156,0,84,84,84,1
,,,,z,0.224,0,85,85,85,1,paints/images/163.jpg,paints/images/205.jpg,86,Ai,1,2020-11-21_22h48.31.078,test3,2020.2.4,MacIntel,60,,,z,0.224,0,85,85,85,1
,,,,m,0.137,0,86,86,86,1,paints/images/121.jpg,paints/images/252.jpg,87,Ai,1,2020-11-21_22h48.31.078,test3,2020.2.4,MacIntel,60,,,m,0.137,0,86,86,86,1
,,,,z,0.145,0,87,87,87,1,paints/images/247.jpg,paints/images/95.jpg,88,Ai,1,2020-11-21_22h48.31.078,test3,2020.2.4,MacIntel,60,,,z,0.145,0,87,87,87,1
,,,,m,0.129,0,88,88,88,1,paints/images/321.jpg,paints/images/150.jpg,89,Ai,1,2020-11-21_22h48.31.078,test3,2020.2.4,MacIntel,60,,,m,0.129,0,88,88,88,1
,,,,z,0.133,0,89,89,89,1,paints/images/46.jpg,paints/images/226.jpg,90,Ai,1,2020-11-21_22h48.31.078,test3,2020.2.4,MacIntel,60,,,z,0.133,0,89,89,89,1
,,,,z,0.262,0,90,90,90,1,paints/images/154.jpg,paints/images/263.jpg,91,Ai,1,2020-11-21_22h48.31.078,test3,2020.2.4,MacIntel,60,,,z,0.262,0,90,90,90,1
,,,,m,0.143,0,91,91,91,1,paints/images/191.jpg,paints/images/158.jpg,92,Ai,1,2020-11-21_22h48.31.078,test3,2020.2.4,MacIntel,60,,,m,0.143,0,91,91,91,1
,,,,z,0.181,0,92,92,92,1,paints/images/49.jpg,paints/images/227.jpg,93,Ai,1,2020-11-21_22h48.31.078,test3,2020.2.4,MacIntel,60,,,z,0.181,0,92,92,92,1
,,,,m,0.128,0,93,93,93,1,paints/images/124.jpg,paints/images/89.jpg,94,Ai,1,2020-11-21_22h48.31.078,test3,2020.2.4,MacIntel,60,,,m,0.128,0,93,93,93,1
,,,,z,0.113,0,94,94,94,1,paints/images/390.jpg,paints/images/43.jpg,95,Ai,1,2020-11-21_22h48.31.078,test3,2020.2.4,MacIntel,60,,,z,0.113,0,94,94,94,1
,,,,m,0.151,0,95,95,95,1,paints/images/42.jpg,paints/images/268.jpg,96,Ai,1,2020-11-21_22h48.31.078,test3,2020.2.4,MacIntel,60,,,m,0.151,0,95,95,95,1
,,,,z,0.114,0,96,96,96,1,paints/images/113.jpg,paints/images/386.jpg,97,Ai,1,2020-11-21_22h48.31.078,test3,2020.2.4,MacIntel,60,,,z,0.114,0,96,96,96,1
,,,,z,0.217,0,97,97,97,1,paints/images/287.jpg,paints/images/307.jpg,98,Ai,1,2020-11-21_22h48.31.078,test3,2020.2.4,MacIntel,60,,,z,0.217,0,97,97,97,1
,,,,z,0.162,0,98,98,98,1,paints/images/134.jpg,paints/images/300.jpg,99,Ai,1,2020-11-21_22h48.31.078,test3,2020.2.4,MacIntel,60,,,z,0.162,0,98,98,98,1
,,,,z,0.157,0,99,99,99,1,paints/images/60.jpg,paints/images/206.jpg,100,Ai,1,2020-11-21_22h48.31.078,test3,2020.2.4,MacIntel,60,,,z,0.157,0,99,99,99,1
,,,,m,0.087,0,100,100,100,1,paints/images/384.jpg,paints/images/335.jpg,101,Ai,1,2020-11-21_22h48.31.078,test3,2020.2.4,MacIntel,60,,,m,0.087,0,100,100,100,1
,,,,z,0.134,0,101,101,101,1,paints/images/326.jpg,paints/images/139.jpg,102,Ai,1,2020-11-21_22h48.31.078,test3,2020.2.4,MacIntel,60,,,z,0.134,0,101,101,101,1
,,,,m,0.129,0,102,102,102,1,paints/images/166.jpg,paints/images/374.jpg,103,Ai,1,2020-11-21_22h48.31.078,test3,2020.2.4,MacIntel,60,,,m,0.129,0,102,102,102,1
,,,,m,0.195,0,103,103,103,1,paints/images/360.jpg,paints/images/10.jpg,104,Ai,1,2020-11-21_22h48.31.078,test3,2020.2.4,MacIntel,60,,,m,0.195,0,103,103,103,1
,,,,z,0.111,0,104,104,104,1,paints/images/158.jpg,paints/images/149.jpg,105,Ai,1,2020-11-21_22h48.31.078,test3,2020.2.4,MacIntel,60,,,z,0.111,0,104,104,104,1
,,,,m,0.138,0,105,105,105,1,paints/images/159.jpg,paints/images/362.jpg,106,Ai,1,2020-11-21_22h48.31.078,test3,2020.2.4,MacIntel,60,,,m,0.138,0,105,105,105,1
,,,,z,0.134,0,106,106,106,1,paints/images/214.jpg,paints/images/116.jpg,107,Ai,1,2020-11-21_22h48.31.078,test3,2020.2.4,MacIntel,60,,,z,0.134,0,106,106,106,1
,,,,m,0.103,0,107,107,107,1,paints/images/256.jpg,paints/images/323.jpg,108,Ai,1,2020-11-21_22h48.31.078,test3,2020.2.4,MacIntel,60,,,m,0.103,0,107,107,107,1
,,,,z,0.147,0,108,108,108,1,paints/images/36.jpg,paints/images/157.jpg,109,Ai,1,2020-11-21_22h48.31.078,test3,2020.2.4,MacIntel,60,,,z,0.147,0,108,108,108,1
,,,,m,0.088,0,109,109,109,1,paints/images/101.jpg,paints/images/126.jpg,110,Ai,1,2020-11-21_22h48.31.078,test3,2020.2.4,MacIntel,60,,,m,0.088,0,109,109,109,1
,,,,z,0.1,0,110,110,110,1,paints/images/265.jpg,paints/images/35.jpg,111,Ai,1,2020-11-21_22h48.31.078,test3,2020.2.4,MacIntel,60,,,z,0.1,0,110,110,110,1
,,,,m,0.077,0,111,111,111,1,paints/images/392.jpg,paints/images/233.jpg,112,Ai,1,2020-11-21_22h48.31.078,test3,2020.2.4,MacIntel,60,,,m,0.077,0,111,111,111,1
,,,,z,0.093,0,112,112,112,1,paints/images/251.jpg,paints/images/12.jpg,113,Ai,1,2020-11-21_22h48.31.078,test3,2020.2.4,MacIntel,60,,,z,0.093,0,112,112,112,1
,,,,m,0.094,0,113,113,113,1,paints/images/12.jpg,paints/images/144.jpg,114,Ai,1,2020-11-21_22h48.31.078,test3,2020.2.4,MacIntel,60,,,m,0.094,0,113,113,113,1
,,,,z,0.111,0,114,114,114,1,paints/images/133.jpg,paints/images/331.jpg,115,Ai,1,2020-11-21_22h48.31.078,test3,2020.2.4,MacIntel,60,,,z,0.111,0,114,114,114,1
,,,,m,0.077,0,115,115,115,1,paints/images/383.jpg,paints/images/99.jpg,116,Ai,1,2020-11-21_22h48.31.078,test3,2020.2.4,MacIntel,60,,,m,0.077,0,115,115,115,1
,,,,z,0.102,0,116,116,116,1,paints/images/211.jpg,paints/images/303.jpg,117,Ai,1,2020-11-21_22h48.31.078,test3,2020.2.4,MacIntel,60,,,z,0.102,0,116,116,116,1
,,,,m,0.117,0,117,117,117,1,paints/images/201.jpg,paints/images/238.jpg,118,Ai,1,2020-11-21_22h48.31.078,test3,2020.2.4,MacIntel,60,,,m,0.117,0,117,117,117,1
,,,,z,0.113,0,118,118,118,1,paints/images/205.jpg,paints/images/102.jpg,119,Ai,1,2020-11-21_22h48.31.078,test3,2020.2.4,MacIntel,60,,,z,0.113,0,118,118,118,1
,,,,z,0.237,0,119,119,119,1,paints/images/270.jpg,paints/images/322.jpg,120,Ai,1,2020-11-21_22h48.31.078,test3,2020.2.4,MacIntel,60,,,z,0.237,0,119,119,119,1
,,,,z,0.155,0,120,120,120,1,paints/images/341.jpg,paints/images/248.jpg,121,Ai,1,2020-11-21_22h48.31.078,test3,2020.2.4,MacIntel,60,,,z,0.155,0,120,120,120,1
,,,,z,0.177,0,121,121,121,1,paints/images/141.jpg,paints/images/94.jpg,122,Ai,1,2020-11-21_22h48.31.078,test3,2020.2.4,MacIntel,60,,,z,0.177,0,121,121,121,1
,,,,z,0.167,0,122,122,122,1,paints/images/83.jpg,paints/images/327.jpg,123,Ai,1,2020-11-21_22h48.31.078,test3,2020.2.4,MacIntel,60,,,z,0.167,0,122,122,122,1
,,,,m,0.158,0,123,123,123,1,paints/images/327.jpg,paints/images/110.jpg,124,Ai,1,2020-11-21_22h48.31.078,test3,2020.2.4,MacIntel,60,,,m,0.158,0,123,123,123,1
,,,,z,0.09,0,124,124,124,1,paints/images/157.jpg,paints/images/79.jpg,125,Ai,1,2020-11-21_22h48.31.078,test3,2020.2.4,MacIntel,60,,,z,0.09,0,124,124,124,1
,,,,m,0.083,0,125,125,125,1,paints/images/193.jpg,paints/images/74.jpg,126,Ai,1,2020-11-21_22h48.31.078,test3,2020.2.4,MacIntel,60,,,m,0.083,0,125,125,125,1
,,,,z,0.126,0,126,126,126,1,paints/images/140.jpg,paints/images/292.jpg,127,Ai,1,2020-11-21_22h48.31.078,test3,2020.2.4,MacIntel,60,,,z,0.126,0,126,126,126,1
,,,,m,0.069,0,127,127,127,1,paints/images/107.jpg,paints/images/92.jpg,128,Ai,1,2020-11-21_22h48.31.078,test3,2020.2.4,MacIntel,60,,,m,0.069,0,127,127,127,1
,,,,z,0.133,0,128,128,128,1,paints/images/7.jpg,paints/images/56.jpg,129,Ai,1,2020-11-21_22h48.31.078,test3,2020.2.4,MacIntel,60,,,z,0.133,0,128,128,128,1
,,,,m,0.099,0,129,129,129,1,paints/images/177.jpg,paints/images/141.jpg,130,Ai,1,2020-11-21_22h48.31.078,test3,2020.2.4,MacIntel,60,,,m,0.099,0,129,129,129,1
,,,,z,0.132,0,130,130,130,1,paints/images/244.jpg,paints/images/250.jpg,131,Ai,1,2020-11-21_22h48.31.078,test3,2020.2.4,MacIntel,60,,,z,0.132,0,130,130,130,1
,,,,m,0.095,0,131,131,131,1,paints/images/253.jpg,paints/images/8.jpg,132,Ai,1,2020-11-21_22h48.31.078,test3,2020.2.4,MacIntel,60,,,m,0.095,0,131,131,131,1
,,,,z,0.108,0,132,132,132,1,paints/images/136.jpg,paints/images/108.jpg,133,Ai,1,2020-11-21_22h48.31.078,test3,2020.2.4,MacIntel,60,,,z,0.108,0,132,132,132,1
,,,,m,0.101,0,133,133,133,1,paints/images/165.jpg,paints/images/147.jpg,134,Ai,1,2020-11-21_22h48.31.078,test3,2020.2.4,MacIntel,60,,,m,0.101,0,133,133,133,1
,,,,z,0.133,0,134,134,134,1,paints/images/39.jpg,paints/images/387.jpg,135,Ai,1,2020-11-21_22h48.31.078,test3,2020.2.4,MacIntel,60,,,z,0.133,0,134,134,134,1
,,,,m,0.062,0,135,135,135,1,paints/images/271.jpg,paints/images/125.jpg,136,Ai,1,2020-11-21_22h48.31.078,test3,2020.2.4,MacIntel,60,,,m,0.062,0,135,135,135,1
,,,,z,0.162,0,136,136,136,1,paints/images/90.jpg,paints/images/130.jpg,137,Ai,1,2020-11-21_22h48.31.078,test3,2020.2.4,MacIntel,60,,,z,0.162,0,136,136,136,1
,,,,z,0.178,0,137,137,137,1,paints/images/362.jpg,paints/images/60.jpg,138,Ai,1,2020-11-21_22h48.31.078,test3,2020.2.4,MacIntel,60,,,z,0.178,0,137,137,137,1
,,,,z,0.179,0,138,138,138,1,paints/images/218.jpg,paints/images/153.jpg,139,Ai,1,2020-11-21_22h48.31.078,test3,2020.2.4,MacIntel,60,,,z,0.179,0,138,138,138,1
,,,,m,0.157,0,139,139,139,1,paints/images/18.jpg,paints/images/324.jpg,140,Ai,1,2020-11-21_22h48.31.078,test3,2020.2.4,MacIntel,60,,,m,0.157,0,139,139,139,1
,,,,z,0.173,0,140,140,140,1,paints/images/29.jpg,paints/images/120.jpg,141,Ai,1,2020-11-21_22h48.31.078,test3,2020.2.4,MacIntel,60,,,z,0.173,0,140,140,140,1
,,,,m,0.001,0,141,141,141,1,paints/images/155.jpg,paints/images/142.jpg,142,Ai,1,2020-11-21_22h48.31.078,test3,2020.2.4,MacIntel,60,,,m,0.001,0,141,141,141,1
,,,,z,0.273,0,142,142,142,1,paints/images/148.jpg,paints/images/396.jpg,143,Ai,1,2020-11-21_22h48.31.078,test3,2020.2.4,MacIntel,60,,,z,0.273,0,142,142,142,1
,,,,m,0.109,0,143,143,143,1,paints/images/373.jpg,paints/images/218.jpg,144,Ai,1,2020-11-21_22h48.31.078,test3,2020.2.4,MacIntel,60,,,m,0.109,0,143,143,143,1
,,,,z,0.151,0,144,144,144,1,paints/images/231.jpg,paints/images/73.jpg,145,Ai,1,2020-11-21_22h48.31.078,test3,2020.2.4,MacIntel,60,,,z,0.151,0,144,144,144,1
,,,,m,0.072,0,145,145,145,1,paints/images/240.jpg,paints/images/356.jpg,146,Ai,1,2020-11-21_22h48.31.078,test3,2020.2.4,MacIntel,60,,,m,0.072,0,145,145,145,1
,,,,m,0.192,0,146,146,146,1,paints/images/332.jpg,paints/images/347.jpg,147,Ai,1,2020-11-21_22h48.31.078,test3,2020.2.4,MacIntel,60,,,m,0.192,0,146,146,146,1
,,,,z,0.152,0,147,147,147,1,paints/images/254.jpg,paints/images/310.jpg,148,Ai,1,2020-11-21_22h48.31.078,test3,2020.2.4,MacIntel,60,,,z,0.152,0,147,147,147,1
,,,,m,0.116,0,148,148,148,1,paints/images/405.jpg,paints/images/385.jpg,149,Ai,1,2020-11-21_22h48.31.078,test3,2020.2.4,MacIntel,60,,,m,0.116,0,148,148,148,1
,,,,m,0.227,0,149,149,149,1,paints/images/345.jpg,paints/images/274.jpg,150,Ai,1,2020-11-21_22h48.31.078,test3,2020.2.4,MacIntel,60,,,m,0.227,0,149,149,149,1
,,,,z,0.183,0,150,150,150,1,paints/images/363.jpg,paints/images/18.jpg,151,Ai,1,2020-11-21_22h48.31.078,test3,2020.2.4,MacIntel,60,,,z,0.183,0,150,150,150,1
,,,,m,0.084,0,151,151,151,1,paints/images/37.jpg,paints/images/53.jpg,152,Ai,1,2020-11-21_22h48.31.078,test3,2020.2.4,MacIntel,60,,,m,0.084,0,151,151,151,1
,,,,z,0.157,0,152,152,152,1,paints/images/315.jpg,paints/images/319.jpg,153,Ai,1,2020-11-21_22h48.31.078,test3,2020.2.4,MacIntel,60,,,z,0.157,0,152,152,152,1
,,,,m,0.047,0,153,153,153,1,paints/images/74.jpg,paints/images/403.jpg,154,Ai,1,2020-11-21_22h48.31.078,test3,2020.2.4,MacIntel,60,,,m,0.047,0,153,153,153,1
,,,,z,0.153,0,154,154,154,1,paints/images/156.jpg,paints/images/246.jpg,155,Ai,1,2020-11-21_22h48.31.078,test3,2020.2.4,MacIntel,60,,,z,0.153,0,154,154,154,1
,,,,z,0.233,0,155,155,155,1,paints/images/285.jpg,paints/images/270.jpg,156,Ai,1,2020-11-21_22h48.31.078,test3,2020.2.4,MacIntel,60,,,z,0.233,0,155,155,155,1
,,,,m,0.148,0,156,156,156,1,paints/images/17.jpg,paints/images/398.jpg,157,Ai,1,2020-11-21_22h48.31.078,test3,2020.2.4,MacIntel,60,,,m,0.148,0,156,156,156,1
,,,,z,0.161,0,157,157,157,1,paints/images/335.jpg,paints/images/27.jpg,158,Ai,1,2020-11-21_22h48.31.078,test3,2020.2.4,MacIntel,60,,,z,0.161,0,157,157,157,1
,,,,m,0.097,0,158,158,158,1,paints/images/350.jpg,paints/images/156.jpg,159,Ai,1,2020-11-21_22h48.31.078,test3,2020.2.4,MacIntel,60,,,m,0.097,0,158,158,158,1
,,,,m,0.184,0,159,159,159,1,paints/images/31.jpg,paints/images/231.jpg,160,Ai,1,2020-11-21_22h48.31.078,test3,2020.2.4,MacIntel,60,,,m,0.184,0,159,159,159,1
,,,,m,0.158,0,160,160,160,1,paints/images/114.jpg,paints/images/333.jpg,161,Ai,1,2020-11-21_22h48.31.078,test3,2020.2.4,MacIntel,60,,,m,0.158,0,160,160,160,1
,,,,m,0.127,0,161,161,161,1,paints/images/79.jpg,paints/images/408.jpg,162,Ai,1,2020-11-21_22h48.31.078,test3,2020.2.4,MacIntel,60,,,m,0.127,0,161,161,161,1
,,,,z,0.136,0,162,162,162,1,paints/images/338.jpg,paints/images/279.jpg,163,Ai,1,2020-11-21_22h48.31.078,test3,2020.2.4,MacIntel,60,,,z,0.136,0,162,162,162,1
,,,,m,0.095,0,163,163,163,1,paints/images/354.jpg,paints/images/304.jpg,164,Ai,1,2020-11-21_22h48.31.078,test3,2020.2.4,MacIntel,60,,,m,0.095,0,163,163,163,1
,,,,m,0.193,0,164,164,164,1,paints/images/128.jpg,paints/images/276.jpg,165,Ai,1,2020-11-21_22h48.31.078,test3,2020.2.4,MacIntel,60,,,m,0.193,0,164,164,164,1
,,,,z,0.103,0,165,165,165,1,paints/images/35.jpg,paints/images/188.jpg,166,Ai,1,2020-11-21_22h48.31.078,test3,2020.2.4,MacIntel,60,,,z,0.103,0,165,165,165,1
,,,,m,0.093,0,166,166,166,1,paints/images/16.jpg,paints/images/29.jpg,167,Ai,1,2020-11-21_22h48.31.078,test3,2020.2.4,MacIntel,60,,,m,0.093,0,166,166,166,1
,,,,m,0.192,0,167,167,167,1,paints/images/119.jpg,paints/images/251.jpg,168,Ai,1,2020-11-21_22h48.31.078,test3,2020.2.4,MacIntel,60,,,m,0.192,0,167,167,167,1
,,,,m,0.181,0,168,168,168,1,paints/images/207.jpg,paints/images/65.jpg,169,Ai,1,2020-11-21_22h48.31.078,test3,2020.2.4,MacIntel,60,,,m,0.181,0,168,168,168,1
,,,,z,0.125,0,169,169,169,1,paints/images/173.jpg,paints/images/373.jpg,170,Ai,1,2020-11-21_22h48.31.078,test3,2020.2.4,MacIntel,60,,,z,0.125,0,169,169,169,1
,,,,m,0.111,0,170,170,170,1,paints/images/135.jpg,paints/images/196.jpg,171,Ai,1,2020-11-21_22h48.31.078,test3,2020.2.4,MacIntel,60,,,m,0.111,0,170,170,170,1
,,,,z,0.136,0,171,171,171,1,paints/images/55.jpg,paints/images/316.jpg,172,Ai,1,2020-11-21_22h48.31.078,test3,2020.2.4,MacIntel,60,,,z,0.136,0,171,171,171,1
,,,,m,0.086,0,172,172,172,1,paints/images/343.jpg,paints/images/383.jpg,173,Ai,1,2020-11-21_22h48.31.078,test3,2020.2.4,MacIntel,60,,,m,0.086,0,172,172,172,1
,,,,z,0.134,0,173,173,173,1,paints/images/203.jpg,paints/images/186.jpg,174,Ai,1,2020-11-21_22h48.31.078,test3,2020.2.4,MacIntel,60,,,z,0.134,0,173,173,173,1
,,,,m,0.062,0,174,174,174,1,paints/images/123.jpg,paints/images/128.jpg,175,Ai,1,2020-11-21_22h48.31.078,test3,2020.2.4,MacIntel,60,,,m,0.062,0,174,174,174,1
,,,,z,0.126,0,175,175,175,1,paints/images/391.jpg,paints/images/208.jpg,176,Ai,1,2020-11-21_22h48.31.078,test3,2020.2.4,MacIntel,60,,,z,0.126,0,175,175,175,1
,,,,m,0.077,0,176,176,176,1,paints/images/105.jpg,paints/images/313.jpg,177,Ai,1,2020-11-21_22h48.31.078,test3,2020.2.4,MacIntel,60,,,m,0.077,0,176,176,176,1
,,,,m,0.168,0,177,177,177,1,paints/images/184.jpg,paints/images/69.jpg,178,Ai,1,2020-11-21_22h48.31.078,test3,2020.2.4,MacIntel,60,,,m,0.168,0,177,177,177,1
,,,,m,0.165,0,178,178,178,1,paints/images/63.jpg,paints/images/191.jpg,179,Ai,1,2020-11-21_22h48.31.078,test3,2020.2.4,MacIntel,60,,,m,0.165,0,178,178,178,1
,,,,z,0.164,0,179,179,179,1,paints/images/85.jpg,paints/images/390.jpg,180,Ai,1,2020-11-21_22h48.31.078,test3,2020.2.4,MacIntel,60,,,z,0.164,0,179,179,179,1
,,,,m,0.093,0,180,180,180,1,paints/images/179.jpg,paints/images/177.jpg,181,Ai,1,2020-11-21_22h48.31.078,test3,2020.2.4,MacIntel,60,,,m,0.093,0,180,180,180,1
,,,,z,0.124,0,181,181,181,1,paints/images/320.jpg,paints/images/171.jpg,182,Ai,1,2020-11-21_22h48.31.078,test3,2020.2.4,MacIntel,60,,,z,0.124,0,181,181,181,1
,,,,m,0.094,0,182,182,182,1,paints/images/77.jpg,paints/images/406.jpg,183,Ai,1,2020-11-21_22h48.31.078,test3,2020.2.4,MacIntel,60,,,m,0.094,0,182,182,182,1
,,,,z,0.138,0,183,183,183,1,paints/images/66.jpg,paints/images/255.jpg,184,Ai,1,2020-11-21_22h48.31.078,test3,2020.2.4,MacIntel,60,,,z,0.138,0,183,183,183,1
,,,,m,0.06,0,184,184,184,1,paints/images/308.jpg,paints/images/41.jpg,185,Ai,1,2020-11-21_22h48.31.078,test3,2020.2.4,MacIntel,60,,,m,0.06,0,184,184,184,1
,,,,z,0.164,0,185,185,185,1,paints/images/260.jpg,paints/images/297.jpg,186,Ai,1,2020-11-21_22h48.31.078,test3,2020.2.4,MacIntel,60,,,z,0.164,0,185,185,185,1
,,,,m,0.098,0,186,186,186,1,paints/images/126.jpg,paints/images/273.jpg,187,Ai,1,2020-11-21_22h48.31.078,test3,2020.2.4,MacIntel,60,,,m,0.098,0,186,186,186,1
,,,,z,0.128,0,187,187,187,1,paints/images/68.jpg,paints/images/189.jpg,188,Ai,1,2020-11-21_22h48.31.078,test3,2020.2.4,MacIntel,60,,,z,0.128,0,187,187,187,1
,,,,z,0.176,0,188,188,188,1,paints/images/144.jpg,paints/images/280.jpg,189,Ai,1,2020-11-21_22h48.31.078,test3,2020.2.4,MacIntel,60,,,z,0.176,0,188,188,188,1
,,,,z,0.16,0,189,189,189,1,paints/images/24.jpg,paints/images/389.jpg,190,Ai,1,2020-11-21_22h48.31.078,test3,2020.2.4,MacIntel,60,,,z,0.16,0,189,189,189,1
,,,,z,0.161,0,190,190,190,1,paints/images/222.jpg,paints/images/7.jpg,191,Ai,1,2020-11-21_22h48.31.078,test3,2020.2.4,MacIntel,60,,,z,0.161,0,190,190,190,1
,,,,m,0.133,0,191,191,191,1,paints/images/282.jpg,paints/images/278.jpg,192,Ai,1,2020-11-21_22h48.31.078,test3,2020.2.4,MacIntel,60,,,m,0.133,0,191,191,191,1
,,,,z,0.153,0,192,192,192,1,paints/images/190.jpg,paints/images/61.jpg,193,Ai,1,2020-11-21_22h48.31.078,test3,2020.2.4,MacIntel,60,,,z,0.153,0,192,192,192,1
,,,,m,0.044,0,193,193,193,1,paints/images/212.jpg,paints/images/402.jpg,194,Ai,1,2020-11-21_22h48.31.078,test3,2020.2.4,MacIntel,60,,,m,0.044,0,193,193,193,1
,,,,z,0.166,0,194,194,194,1,paints/images/80.jpg,paints/images/410.jpg,195,Ai,1,2020-11-21_22h48.31.078,test3,2020.2.4,MacIntel,60,,,z,0.166,0,194,194,194,1
,,,,m,0.059,0,195,195,195,1,paints/images/252.jpg,paints/images/382.jpg,196,Ai,1,2020-11-21_22h48.31.078,test3,2020.2.4,MacIntel,60,,,m,0.059,0,195,195,195,1
,,,,z,0.148,0,196,196,196,1,paints/images/71.jpg,paints/images/337.jpg,197,Ai,1,2020-11-21_22h48.31.078,test3,2020.2.4,MacIntel,60,,,z,0.148,0,196,196,196,1
,,,,m,0.077,0,197,197,197,1,paints/images/264.jpg,paints/images/118.jpg,198,Ai,1,2020-11-21_22h48.31.078,test3,2020.2.4,MacIntel,60,,,m,0.077,0,197,197,197,1
,,,,z,0.125,0,198,198,198,1,paints/images/180.jpg,paints/images/357.jpg,199,Ai,1,2020-11-21_22h48.31.078,test3,2020.2.4,MacIntel,60,,,z,0.125,0,198,198,198,1
,,,,m,0.066,0,199,199,199,1,paints/images/357.jpg,paints/images/15.jpg,200,Ai,1,2020-11-21_22h48.31.078,test3,2020.2.4,MacIntel,60,,,m,0.066,0,199,199,199,1
,,,,z,0.13,0,200,200,200,1,paints/images/401.jpg,paints/images/220.jpg,201,Ai,1,2020-11-21_22h48.31.078,test3,2020.2.4,MacIntel,60,,,z,0.13,0,200,200,200,1
,,,,m,0.094,0,201,201,201,1,paints/images/95.jpg,paints/images/135.jpg,202,Ai,1,2020-11-21_22h48.31.078,test3,2020.2.4,MacIntel,60,,,m,0.094,0,201,201,201,1
,,,,z,0.207,0,202,202,202,1,paints/images/152.jpg,paints/images/234.jpg,203,Ai,1,2020-11-21_22h48.31.078,test3,2020.2.4,MacIntel,60,,,z,0.207,0,202,202,202,1
,,,,z,0.22,0,203,203,203,1,paints/images/30.jpg,paints/images/88.jpg,204,Ai,1,2020-11-21_22h48.31.078,test3,2020.2.4,MacIntel,60,,,z,0.22,0,203,203,203,1
,,,,m,0.102,0,204,204,204,1,paints/images/194.jpg,paints/images/392.jpg,205,Ai,1,2020-11-21_22h48.31.078,test3,2020.2.4,MacIntel,60,,,m,0.102,0,204,204,204,1
,,,,z,0.16,0,205,205,205,1,paints/images/351.jpg,paints/images/103.jpg,206,Ai,1,2020-11-21_22h48.31.078,test3,2020.2.4,MacIntel,60,,,z,0.16,0,205,205,205,1
,,,,m,0.077,0,206,206,206,1,paints/images/236.jpg,paints/images/369.jpg,207,Ai,1,2020-11-21_22h48.31.078,test3,2020.2.4,MacIntel,60,,,m,0.077,0,206,206,206,1
,,,,z,0.15,0,207,207,207,1,paints/images/219.jpg,paints/images/136.jpg,208,Ai,1,2020-11-21_22h48.31.078,test3,2020.2.4,MacIntel,60,,,z,0.15,0,207,207,207,1
,,,,m,0.091,0,208,208,208,1,paints/images/306.jpg,paints/images/239.jpg,209,Ai,1,2020-11-21_22h48.31.078,test3,2020.2.4,MacIntel,60,,,m,0.091,0,208,208,208,1
,,,,z,0.11,0,209,209,209,1,paints/images/108.jpg,paints/images/259.jpg,210,Ai,1,2020-11-21_22h48.31.078,test3,2020.2.4,MacIntel,60,,,z,0.11,0,209,209,209,1
,,,,m,0.069,0,210,210,210,1,paints/images/210.jpg,paints/images/30.jpg,211,Ai,1,2020-11-21_22h48.31.078,test3,2020.2.4,MacIntel,60,,,m,0.069,0,210,210,210,1
