key_resp.keys,key_resp.rt,key_resp_3.keys,key_resp_3.rt,key_resp_2.keys,key_resp_2.rt,trials.thisRepN,trials.thisTrialN,trials.thisN,trials.thisIndex,trials.ran,image_left,image_right,trial_num,participant,session,date,expName,psychopyVersion,OS,frameRate,key_resp_5.keys,key_resp_5.rt,key_resp_4.keys,key_resp_4.rt,trials_2.thisRepN,trials_2.thisTrialN,trials_2.thisN,trials_2.thisIndex,trials_2.ran
space,1.18684,space,0.59533,m,3.37687,0,0,0,0,1,paints/images/344.jpg,paints/images/121.jpg,1,Beri,1,2020-11-20_18h29.18.417,test3,2020.2.4,Win32,60,,,,,,,,,
,,,,z,1.774745,0,1,1,1,1,paints/images/369.jpg,paints/images/367.jpg,2,Beri,1,2020-11-20_18h29.18.417,test3,2020.2.4,Win32,60,,,,,,,,,
,,,,m,0.91227,0,2,2,2,1,paints/images/385.jpg,paints/images/253.jpg,3,Beri,1,2020-11-20_18h29.18.417,test3,2020.2.4,Win32,60,,,,,,,,,
,,,,z,1.315495,0,3,3,3,1,paints/images/230.jpg,paints/images/124.jpg,4,Beri,1,2020-11-20_18h29.18.417,test3,2020.2.4,Win32,60,,,,,,,,,
,,,,z,0.926365,0,4,4,4,1,paints/images/284.jpg,paints/images/172.jpg,5,Beri,1,2020-11-20_18h29.18.417,test3,2020.2.4,Win32,60,,,,,,,,,
,,,,z,0.87467,0,5,5,5,1,paints/images/325.jpg,paints/images/5.jpg,6,Beri,1,2020-11-20_18h29.18.417,test3,2020.2.4,Win32,60,,,,,,,,,
,,,,z,0.700145,0,6,6,6,1,paints/images/2.jpg,paints/images/107.jpg,7,Beri,1,2020-11-20_18h29.18.417,test3,2020.2.4,Win32,60,,,,,,,,,
,,,,m,0.92915,0,7,7,7,1,paints/images/330.jpg,paints/images/93.jpg,8,Beri,1,2020-11-20_18h29.18.417,test3,2020.2.4,Win32,60,,,,,,,,,
,,,,z,1.12739,0,8,8,8,1,paints/images/197.jpg,paints/images/20.jpg,9,Beri,1,2020-11-20_18h29.18.417,test3,2020.2.4,Win32,60,,,,,,,,,
,,,,m,0.95184,0,9,9,9,1,paints/images/233.jpg,paints/images/346.jpg,10,Beri,1,2020-11-20_18h29.18.417,test3,2020.2.4,Win32,60,,,,,,,,,
,,,,z,0.91119,0,10,10,10,1,paints/images/289.jpg,paints/images/317.jpg,11,Beri,1,2020-11-20_18h29.18.417,test3,2020.2.4,Win32,60,,,,,,,,,
,,,,m,0.93912,0,11,11,11,1,paints/images/189.jpg,paints/images/230.jpg,12,Beri,1,2020-11-20_18h29.18.417,test3,2020.2.4,Win32,60,,,,,,,,,
,,,,z,3.16883,0,12,12,12,1,paints/images/28.jpg,paints/images/401.jpg,13,Beri,1,2020-11-20_18h29.18.417,test3,2020.2.4,Win32,60,,,,,,,,,
,,,,z,1.71801,0,13,13,13,1,paints/images/183.jpg,paints/images/198.jpg,14,Beri,1,2020-11-20_18h29.18.417,test3,2020.2.4,Win32,60,,,,,,,,,
,,,,m,1.27993,0,14,14,14,1,paints/images/223.jpg,paints/images/249.jpg,15,Beri,1,2020-11-20_18h29.18.417,test3,2020.2.4,Win32,60,,,,,,,,,
,,,,z,1.45589,0,15,15,15,1,paints/images/331.jpg,paints/images/168.jpg,16,Beri,1,2020-11-20_18h29.18.417,test3,2020.2.4,Win32,60,,,,,,,,,
,,,,z,0.937905,0,16,16,16,1,paints/images/129.jpg,paints/images/21.jpg,17,Beri,1,2020-11-20_18h29.18.417,test3,2020.2.4,Win32,60,,,,,,,,,
,,,,z,0.95496,0,17,17,17,1,paints/images/250.jpg,paints/images/290.jpg,18,Beri,1,2020-11-20_18h29.18.417,test3,2020.2.4,Win32,60,,,,,,,,,
,,,,m,0.95792,0,18,18,18,1,paints/images/342.jpg,paints/images/371.jpg,19,Beri,1,2020-11-20_18h29.18.417,test3,2020.2.4,Win32,60,,,,,,,,,
,,,,m,0.96317,0,19,19,19,1,paints/images/312.jpg,paints/images/349.jpg,20,Beri,1,2020-11-20_18h29.18.417,test3,2020.2.4,Win32,60,,,,,,,,,
,,,,m,1.34492,0,20,20,20,1,paints/images/44.jpg,paints/images/23.jpg,21,Beri,1,2020-11-20_18h29.18.417,test3,2020.2.4,Win32,60,,,,,,,,,
,,,,m,0.852285,0,21,21,21,1,paints/images/209.jpg,paints/images/236.jpg,22,Beri,1,2020-11-20_18h29.18.417,test3,2020.2.4,Win32,60,,,,,,,,,
,,,,m,1.042445,0,22,22,22,1,paints/images/314.jpg,paints/images/326.jpg,23,Beri,1,2020-11-20_18h29.18.417,test3,2020.2.4,Win32,60,,,,,,,,,
,,,,z,0.974135,0,23,23,23,1,paints/images/374.jpg,paints/images/397.jpg,24,Beri,1,2020-11-20_18h29.18.417,test3,2020.2.4,Win32,60,,,,,,,,,
,,,,m,0.819295,0,24,24,24,1,paints/images/355.jpg,paints/images/400.jpg,25,Beri,1,2020-11-20_18h29.18.417,test3,2020.2.4,Win32,60,,,,,,,,,
,,,,z,0.83644,0,25,25,25,1,paints/images/346.jpg,paints/images/223.jpg,26,Beri,1,2020-11-20_18h29.18.417,test3,2020.2.4,Win32,60,,,,,,,,,
,,,,m,0.93251,0,26,26,26,1,paints/images/292.jpg,paints/images/122.jpg,27,Beri,1,2020-11-20_18h29.18.417,test3,2020.2.4,Win32,60,,,,,,,,,
,,,,z,0.934705,0,27,27,27,1,paints/images/81.jpg,paints/images/294.jpg,28,Beri,1,2020-11-20_18h29.18.417,test3,2020.2.4,Win32,60,,,,,,,,,
,,,,m,0.920015,0,28,28,28,1,paints/images/359.jpg,paints/images/370.jpg,29,Beri,1,2020-11-20_18h29.18.417,test3,2020.2.4,Win32,60,,,,,,,,,
,,,,z,1.673075,0,29,29,29,1,paints/images/88.jpg,paints/images/119.jpg,30,Beri,1,2020-11-20_18h29.18.417,test3,2020.2.4,Win32,60,,,,,,,,,
,,,,z,2.81088,0,30,30,30,1,paints/images/178.jpg,paints/images/47.jpg,31,Beri,1,2020-11-20_18h29.18.417,test3,2020.2.4,Win32,60,,,,,,,,,
,,,,m,1.12485,0,31,31,31,1,paints/images/139.jpg,paints/images/377.jpg,32,Beri,1,2020-11-20_18h29.18.417,test3,2020.2.4,Win32,60,,,,,,,,,
,,,,m,1.03316,0,32,32,32,1,paints/images/142.jpg,paints/images/379.jpg,33,Beri,1,2020-11-20_18h29.18.417,test3,2020.2.4,Win32,60,,,,,,,,,
,,,,m,1.293125,0,33,33,33,1,paints/images/366.jpg,paints/images/22.jpg,34,Beri,1,2020-11-20_18h29.18.417,test3,2020.2.4,Win32,60,,,,,,,,,
,,,,z,2.07784,0,34,34,34,1,paints/images/277.jpg,paints/images/365.jpg,35,Beri,1,2020-11-20_18h29.18.417,test3,2020.2.4,Win32,60,,,,,,,,,
,,,,z,1.016385,0,35,35,35,1,paints/images/406.jpg,paints/images/388.jpg,36,Beri,1,2020-11-20_18h29.18.417,test3,2020.2.4,Win32,60,,,,,,,,,
,,,,z,1.996295,0,36,36,36,1,paints/images/389.jpg,paints/images/104.jpg,37,Beri,1,2020-11-20_18h29.18.417,test3,2020.2.4,Win32,60,,,,,,,,,
,,,,m,0.70542,0,37,37,37,1,paints/images/20.jpg,paints/images/84.jpg,38,Beri,1,2020-11-20_18h29.18.417,test3,2020.2.4,Win32,60,,,,,,,,,
,,,,m,0.766205,0,38,38,38,1,paints/images/169.jpg,paints/images/163.jpg,39,Beri,1,2020-11-20_18h29.18.417,test3,2020.2.4,Win32,60,,,,,,,,,
,,,,m,1.02529,0,39,39,39,1,paints/images/58.jpg,paints/images/359.jpg,40,Beri,1,2020-11-20_18h29.18.417,test3,2020.2.4,Win32,60,,,,,,,,,
,,,,m,1.597945,0,40,40,40,1,paints/images/376.jpg,paints/images/256.jpg,41,Beri,1,2020-11-20_18h29.18.417,test3,2020.2.4,Win32,60,,,,,,,,,
,,,,m,0.81357,0,41,41,41,1,paints/images/33.jpg,paints/images/261.jpg,42,Beri,1,2020-11-20_18h29.18.417,test3,2020.2.4,Win32,60,,,,,,,,,
,,,,m,1.601575,0,42,42,42,1,paints/images/294.jpg,paints/images/96.jpg,43,Beri,1,2020-11-20_18h29.18.417,test3,2020.2.4,Win32,60,,,,,,,,,
,,,,m,2.93011,0,43,43,43,1,paints/images/269.jpg,paints/images/293.jpg,44,Beri,1,2020-11-20_18h29.18.417,test3,2020.2.4,Win32,60,,,,,,,,,
,,,,m,1.066905,0,44,44,44,1,paints/images/199.jpg,paints/images/284.jpg,45,Beri,1,2020-11-20_18h29.18.417,test3,2020.2.4,Win32,60,,,,,,,,,
,,,,m,0.862615,0,45,45,45,1,paints/images/255.jpg,paints/images/281.jpg,46,Beri,1,2020-11-20_18h29.18.417,test3,2020.2.4,Win32,60,,,,,,,,,
,,,,m,0.873545,0,46,46,46,1,paints/images/382.jpg,paints/images/4.jpg,47,Beri,1,2020-11-20_18h29.18.417,test3,2020.2.4,Win32,60,,,,,,,,,
,,,,z,1.24369,0,47,47,47,1,paints/images/111.jpg,paints/images/83.jpg,48,Beri,1,2020-11-20_18h29.18.417,test3,2020.2.4,Win32,60,,,,,,,,,
,,,,m,1.73361,0,48,48,48,1,paints/images/239.jpg,paints/images/151.jpg,49,Beri,1,2020-11-20_18h29.18.417,test3,2020.2.4,Win32,60,,,,,,,,,
,,,,m,1.524845,0,49,49,49,1,paints/images/84.jpg,paints/images/341.jpg,50,Beri,1,2020-11-20_18h29.18.417,test3,2020.2.4,Win32,60,,,,,,,,,
,,,,z,1.21322,0,50,50,50,1,paints/images/317.jpg,paints/images/159.jpg,51,Beri,1,2020-11-20_18h29.18.417,test3,2020.2.4,Win32,60,,,,,,,,,
,,,,m,0.728825,0,51,51,51,1,paints/images/153.jpg,paints/images/212.jpg,52,Beri,1,2020-11-20_18h29.18.417,test3,2020.2.4,Win32,60,,,,,,,,,
,,,,m,0.925785,0,52,52,52,1,paints/images/5.jpg,paints/images/361.jpg,53,Beri,1,2020-11-20_18h29.18.417,test3,2020.2.4,Win32,60,,,,,,,,,
,,,,m,0.88035,0,53,53,53,1,paints/images/319.jpg,paints/images/178.jpg,54,Beri,1,2020-11-20_18h29.18.417,test3,2020.2.4,Win32,60,,,,,,,,,
,,,,m,1.79235,0,54,54,54,1,paints/images/118.jpg,paints/images/275.jpg,55,Beri,1,2020-11-20_18h29.18.417,test3,2020.2.4,Win32,60,,,,,,,,,
,,,,z,1.141335,0,55,55,55,1,paints/images/213.jpg,paints/images/312.jpg,56,Beri,1,2020-11-20_18h29.18.417,test3,2020.2.4,Win32,60,,,,,,,,,
,,,,m,0.506145,0,56,56,56,1,paints/images/4.jpg,paints/images/131.jpg,57,Beri,1,2020-11-20_18h29.18.417,test3,2020.2.4,Win32,60,,,,,,,,,
,,,,z,0.874795,0,57,57,57,1,paints/images/206.jpg,paints/images/391.jpg,58,Beri,1,2020-11-20_18h29.18.417,test3,2020.2.4,Win32,60,,,,,,,,,
,,,,m,0.59722,0,58,58,58,1,paints/images/349.jpg,paints/images/240.jpg,59,Beri,1,2020-11-20_18h29.18.417,test3,2020.2.4,Win32,60,,,,,,,,,
,,,,m,0.86956,0,59,59,59,1,paints/images/174.jpg,paints/images/197.jpg,60,Beri,1,2020-11-20_18h29.18.417,test3,2020.2.4,Win32,60,,,,,,,,,
,,,,z,0.989485,0,60,60,60,1,paints/images/93.jpg,paints/images/330.jpg,61,Beri,1,2020-11-20_18h29.18.417,test3,2020.2.4,Win32,60,,,,,,,,,
,,,,m,0.970075,0,61,61,61,1,paints/images/262.jpg,paints/images/225.jpg,62,Beri,1,2020-11-20_18h29.18.417,test3,2020.2.4,Win32,60,,,,,,,,,
,,,,m,1.81456,0,62,62,62,1,paints/images/322.jpg,paints/images/267.jpg,63,Beri,1,2020-11-20_18h29.18.417,test3,2020.2.4,Win32,60,,,,,,,,,
,,,,z,0.916735,0,63,63,63,1,paints/images/104.jpg,paints/images/140.jpg,64,Beri,1,2020-11-20_18h29.18.417,test3,2020.2.4,Win32,60,,,,,,,,,
,,,,m,2.54789,0,64,64,64,1,paints/images/400.jpg,paints/images/355.jpg,65,Beri,1,2020-11-20_18h29.18.417,test3,2020.2.4,Win32,60,,,,,,,,,
,,,,z,1.09587,0,65,65,65,1,paints/images/89.jpg,paints/images/380.jpg,66,Beri,1,2020-11-20_18h29.18.417,test3,2020.2.4,Win32,60,,,,,,,,,
,,,,m,1.578335,0,66,66,66,1,paints/images/181.jpg,paints/images/195.jpg,67,Beri,1,2020-11-20_18h29.18.417,test3,2020.2.4,Win32,60,,,,,,,,,
,,,,m,1.005275,0,67,67,67,1,paints/images/130.jpg,paints/images/155.jpg,68,Beri,1,2020-11-20_18h29.18.417,test3,2020.2.4,Win32,60,,,,,,,,,
,,,,m,1.11361,0,68,68,68,1,paints/images/15.jpg,paints/images/55.jpg,69,Beri,1,2020-11-20_18h29.18.417,test3,2020.2.4,Win32,60,,,,,,,,,
,,,,z,1.07767,0,69,69,69,1,paints/images/393.jpg,paints/images/34.jpg,70,Beri,1,2020-11-20_18h29.18.417,test3,2020.2.4,Win32,60,,,,,,,,,
,,,,m,0.69243,0,70,70,70,1,paints/images/192.jpg,paints/images/351.jpg,71,Beri,1,2020-11-20_18h29.18.417,test3,2020.2.4,Win32,60,,,,,,,,,
,,,,z,1.50005,0,71,71,71,1,paints/images/57.jpg,paints/images/363.jpg,72,Beri,1,2020-11-20_18h29.18.417,test3,2020.2.4,Win32,60,,,,,,,,,
,,,,z,1.901855,0,72,72,72,1,paints/images/243.jpg,paints/images/295.jpg,73,Beri,1,2020-11-20_18h29.18.417,test3,2020.2.4,Win32,60,,,,,,,,,
,,,,z,2.480615,0,73,73,73,1,paints/images/196.jpg,paints/images/146.jpg,74,Beri,1,2020-11-20_18h29.18.417,test3,2020.2.4,Win32,60,,,,,,,,,
,,,,m,1.18568,0,74,74,74,1,paints/images/367.jpg,paints/images/332.jpg,75,Beri,1,2020-11-20_18h29.18.417,test3,2020.2.4,Win32,60,,,,,,,,,
,,,,m,2.820795,0,75,75,75,1,paints/images/249.jpg,paints/images/50.jpg,76,Beri,1,2020-11-20_18h29.18.417,test3,2020.2.4,Win32,60,,,,,,,,,
,,,,m,2.62919,0,76,76,76,1,paints/images/100.jpg,paints/images/91.jpg,77,Beri,1,2020-11-20_18h29.18.417,test3,2020.2.4,Win32,60,,,,,,,,,
,,,,m,0.825225,0,77,77,77,1,paints/images/301.jpg,paints/images/154.jpg,78,Beri,1,2020-11-20_18h29.18.417,test3,2020.2.4,Win32,60,,,,,,,,,
,,,,m,0.7432,0,78,78,78,1,paints/images/13.jpg,paints/images/308.jpg,79,Beri,1,2020-11-20_18h29.18.417,test3,2020.2.4,Win32,60,,,,,,,,,
,,,,z,1.031515,0,79,79,79,1,paints/images/11.jpg,paints/images/24.jpg,80,Beri,1,2020-11-20_18h29.18.417,test3,2020.2.4,Win32,60,,,,,,,,,
,,,,z,0.86935,0,80,80,80,1,paints/images/27.jpg,paints/images/114.jpg,81,Beri,1,2020-11-20_18h29.18.417,test3,2020.2.4,Win32,60,,,,,,,,,
,,,,m,0.70208,0,81,81,81,1,paints/images/334.jpg,paints/images/217.jpg,82,Beri,1,2020-11-20_18h29.18.417,test3,2020.2.4,Win32,60,,,,,,,,,
,,,,m,0.97206,0,82,82,82,1,paints/images/340.jpg,paints/images/320.jpg,83,Beri,1,2020-11-20_18h29.18.417,test3,2020.2.4,Win32,60,,,,,,,,,
,,,,z,1.154945,0,83,83,83,1,paints/images/204.jpg,paints/images/52.jpg,84,Beri,1,2020-11-20_18h29.18.417,test3,2020.2.4,Win32,60,,,,,,,,,
,,,,m,0.95327,0,84,84,84,1,paints/images/266.jpg,paints/images/179.jpg,85,Beri,1,2020-11-20_18h29.18.417,test3,2020.2.4,Win32,60,,,,,,,,,
,,,,m,0.99055,0,85,85,85,1,paints/images/309.jpg,paints/images/45.jpg,86,Beri,1,2020-11-20_18h29.18.417,test3,2020.2.4,Win32,60,,,,,,,,,
,,,,m,2.02628,0,86,86,86,1,paints/images/48.jpg,paints/images/352.jpg,87,Beri,1,2020-11-20_18h29.18.417,test3,2020.2.4,Win32,60,,,,,,,,,
,,,,z,1.519245,0,87,87,87,1,paints/images/238.jpg,paints/images/190.jpg,88,Beri,1,2020-11-20_18h29.18.417,test3,2020.2.4,Win32,60,,,,,,,,,
,,,,z,0.988015,0,88,88,88,1,paints/images/216.jpg,paints/images/207.jpg,89,Beri,1,2020-11-20_18h29.18.417,test3,2020.2.4,Win32,60,,,,,,,,,
,,,,z,1.045605,0,89,89,89,1,paints/images/228.jpg,paints/images/315.jpg,90,Beri,1,2020-11-20_18h29.18.417,test3,2020.2.4,Win32,60,,,,,,,,,
,,,,z,41.749405,0,90,90,90,1,paints/images/368.jpg,paints/images/221.jpg,91,Beri,1,2020-11-20_18h29.18.417,test3,2020.2.4,Win32,60,,,,,,,,,
,,,,z,3.35209,0,91,91,91,1,paints/images/402.jpg,paints/images/257.jpg,92,Beri,1,2020-11-20_18h29.18.417,test3,2020.2.4,Win32,60,,,,,,,,,
,,,,z,1.428525,0,92,92,92,1,paints/images/248.jpg,paints/images/296.jpg,93,Beri,1,2020-11-20_18h29.18.417,test3,2020.2.4,Win32,60,,,,,,,,,
,,,,z,0.85489,0,93,93,93,1,paints/images/234.jpg,paints/images/174.jpg,94,Beri,1,2020-11-20_18h29.18.417,test3,2020.2.4,Win32,60,,,,,,,,,
,,,,z,0.90702,0,94,94,94,1,paints/images/149.jpg,paints/images/204.jpg,95,Beri,1,2020-11-20_18h29.18.417,test3,2020.2.4,Win32,60,,,,,,,,,
,,,,m,1.104755,0,95,95,95,1,paints/images/56.jpg,paints/images/117.jpg,96,Beri,1,2020-11-20_18h29.18.417,test3,2020.2.4,Win32,60,,,,,,,,,
,,,,m,0.798405,0,96,96,96,1,paints/images/146.jpg,paints/images/287.jpg,97,Beri,1,2020-11-20_18h29.18.417,test3,2020.2.4,Win32,60,,,,,,,,,
,,,,z,1.027365,0,97,97,97,1,paints/images/221.jpg,paints/images/62.jpg,98,Beri,1,2020-11-20_18h29.18.417,test3,2020.2.4,Win32,60,,,,,,,,,
,,,,m,8.747645,0,98,98,98,1,paints/images/110.jpg,paints/images/321.jpg,99,Beri,1,2020-11-20_18h29.18.417,test3,2020.2.4,Win32,60,,,,,,,,,
,,,,z,0.757645,0,99,99,99,1,paints/images/67.jpg,paints/images/384.jpg,100,Beri,1,2020-11-20_18h29.18.417,test3,2020.2.4,Win32,60,,,,,,,,,
,,,,m,0.58322,0,100,100,100,1,paints/images/356.jpg,paints/images/137.jpg,101,Beri,1,2020-11-20_18h29.18.417,test3,2020.2.4,Win32,60,,,,,,,,,
,,,,m,0.85093,0,101,101,101,1,paints/images/274.jpg,paints/images/232.jpg,102,Beri,1,2020-11-20_18h29.18.417,test3,2020.2.4,Win32,60,,,,,,,,,
,,,,m,1.132075,0,102,102,102,1,paints/images/70.jpg,paints/images/183.jpg,103,Beri,1,2020-11-20_18h29.18.417,test3,2020.2.4,Win32,60,,,,,,,,,
,,,,z,1.952915,0,103,103,103,1,paints/images/10.jpg,paints/images/393.jpg,104,Beri,1,2020-11-20_18h29.18.417,test3,2020.2.4,Win32,60,,,,,,,,,
,,,,z,1.55149,0,104,104,104,1,paints/images/378.jpg,paints/images/181.jpg,105,Beri,1,2020-11-20_18h29.18.417,test3,2020.2.4,Win32,60,,,,,,,,,
,,,,m,1.030805,0,105,105,105,1,paints/images/303.jpg,paints/images/334.jpg,106,Beri,1,2020-11-20_18h29.18.417,test3,2020.2.4,Win32,60,,,,,,,,,
,,,,m,0.92714,0,106,106,106,1,paints/images/328.jpg,paints/images/344.jpg,107,Beri,1,2020-11-20_18h29.18.417,test3,2020.2.4,Win32,60,,,,,,,,,
,,,,m,1.098145,0,107,107,107,1,paints/images/397.jpg,paints/images/318.jpg,108,Beri,1,2020-11-20_18h29.18.417,test3,2020.2.4,Win32,60,,,,,,,,,
,,,,z,1.44293,0,108,108,108,1,paints/images/365.jpg,paints/images/211.jpg,109,Beri,1,2020-11-20_18h29.18.417,test3,2020.2.4,Win32,60,,,,,,,,,
,,,,z,1.904275,0,109,109,109,1,paints/images/23.jpg,paints/images/46.jpg,110,Beri,1,2020-11-20_18h29.18.417,test3,2020.2.4,Win32,60,,,,,,,,,
,,,,z,1.32644,0,110,110,110,1,paints/images/304.jpg,paints/images/11.jpg,111,Beri,1,2020-11-20_18h29.18.417,test3,2020.2.4,Win32,60,,,,,,,,,
,,,,z,0.60117,0,111,111,111,1,paints/images/226.jpg,paints/images/6.jpg,112,Beri,1,2020-11-20_18h29.18.417,test3,2020.2.4,Win32,60,,,,,,,,,
,,,,z,0.90992,0,112,112,112,1,paints/images/170.jpg,paints/images/262.jpg,113,Beri,1,2020-11-20_18h29.18.417,test3,2020.2.4,Win32,60,,,,,,,,,
,,,,m,0.843175,0,113,113,113,1,paints/images/259.jpg,paints/images/343.jpg,114,Beri,1,2020-11-20_18h29.18.417,test3,2020.2.4,Win32,60,,,,,,,,,
,,,,z,0.66375,0,114,114,114,1,paints/images/19.jpg,paints/images/394.jpg,115,Beri,1,2020-11-20_18h29.18.417,test3,2020.2.4,Win32,60,,,,,,,,,
,,,,m,0.880625,0,115,115,115,1,paints/images/215.jpg,paints/images/19.jpg,116,Beri,1,2020-11-20_18h29.18.417,test3,2020.2.4,Win32,60,,,,,,,,,
,,,,z,1.79552,0,116,116,116,1,paints/images/52.jpg,paints/images/360.jpg,117,Beri,1,2020-11-20_18h29.18.417,test3,2020.2.4,Win32,60,,,,,,,,,
,,,,z,1.2515,0,117,117,117,1,paints/images/99.jpg,paints/images/328.jpg,118,Beri,1,2020-11-20_18h29.18.417,test3,2020.2.4,Win32,60,,,,,,,,,
,,,,z,0.697735,0,118,118,118,1,paints/images/150.jpg,paints/images/164.jpg,119,Beri,1,2020-11-20_18h29.18.417,test3,2020.2.4,Win32,60,,,,,,,,,
,,,,m,0.734635,0,119,119,119,1,paints/images/172.jpg,paints/images/213.jpg,120,Beri,1,2020-11-20_18h29.18.417,test3,2020.2.4,Win32,60,,,,,,,,,
,,,,m,0.72068,0,120,120,120,1,paints/images/50.jpg,paints/images/101.jpg,121,Beri,1,2020-11-20_18h29.18.417,test3,2020.2.4,Win32,60,,,,,,,,,
,,,,m,0.852475,0,121,121,121,1,paints/images/358.jpg,paints/images/354.jpg,122,Beri,1,2020-11-20_18h29.18.417,test3,2020.2.4,Win32,60,,,,,,,,,
,,,,m,1.03622,0,122,122,122,1,paints/images/257.jpg,paints/images/265.jpg,123,Beri,1,2020-11-20_18h29.18.417,test3,2020.2.4,Win32,60,,,,,,,,,
,,,,z,0.60735,0,123,123,123,1,paints/images/91.jpg,paints/images/342.jpg,124,Beri,1,2020-11-20_18h29.18.417,test3,2020.2.4,Win32,60,,,,,,,,,
,,,,m,0.516625,0,124,124,124,1,paints/images/168.jpg,paints/images/132.jpg,125,Beri,1,2020-11-20_18h29.18.417,test3,2020.2.4,Win32,60,,,,,,,,,
,,,,z,0.52788,0,125,125,125,1,paints/images/280.jpg,paints/images/98.jpg,126,Beri,1,2020-11-20_18h29.18.417,test3,2020.2.4,Win32,60,,,,,,,,,
,,,,m,1.16796,0,126,126,126,1,paints/images/261.jpg,paints/images/40.jpg,127,Beri,1,2020-11-20_18h29.18.417,test3,2020.2.4,Win32,60,,,,,,,,,
,,,,m,0.571135,0,127,127,127,1,paints/images/333.jpg,paints/images/66.jpg,128,Beri,1,2020-11-20_18h29.18.417,test3,2020.2.4,Win32,60,,,,,,,,,
,,,,m,0.5747,0,128,128,128,1,paints/images/96.jpg,paints/images/82.jpg,129,Beri,1,2020-11-20_18h29.18.417,test3,2020.2.4,Win32,60,,,,,,,,,
,,,,z,1.22992,0,129,129,129,1,paints/images/32.jpg,paints/images/325.jpg,130,Beri,1,2020-11-20_18h29.18.417,test3,2020.2.4,Win32,60,,,,,,,,,
,,,,z,1.024305,0,130,130,130,1,paints/images/268.jpg,paints/images/167.jpg,131,Beri,1,2020-11-20_18h29.18.417,test3,2020.2.4,Win32,60,,,,,,,,,
,,,,m,0.77403,0,131,131,131,1,paints/images/162.jpg,paints/images/25.jpg,132,Beri,1,2020-11-20_18h29.18.417,test3,2020.2.4,Win32,60,,,,,,,,,
,,,,m,0.92677,0,132,132,132,1,paints/images/53.jpg,paints/images/305.jpg,133,Beri,1,2020-11-20_18h29.18.417,test3,2020.2.4,Win32,60,,,,,,,,,
,,,,z,1.96412,0,133,133,133,1,paints/images/263.jpg,paints/images/209.jpg,134,Beri,1,2020-11-20_18h29.18.417,test3,2020.2.4,Win32,60,,,,,,,,,
,,,,m,1.680655,0,134,134,134,1,paints/images/92.jpg,paints/images/364.jpg,135,Beri,1,2020-11-20_18h29.18.417,test3,2020.2.4,Win32,60,,,,,,,,,
,,,,z,5.63465,0,135,135,135,1,paints/images/61.jpg,paints/images/291.jpg,136,Beri,1,2020-11-20_18h29.18.417,test3,2020.2.4,Win32,60,,,,,,,,,
,,,,m,0.753945,0,136,136,136,1,paints/images/293.jpg,paints/images/283.jpg,137,Beri,1,2020-11-20_18h29.18.417,test3,2020.2.4,Win32,60,,,,,,,,,
,,,,m,1.01246,0,137,137,137,1,paints/images/229.jpg,paints/images/173.jpg,138,Beri,1,2020-11-20_18h29.18.417,test3,2020.2.4,Win32,60,,,,,,,,,
,,,,m,0.94416,0,138,138,138,1,paints/images/41.jpg,paints/images/133.jpg,139,Beri,1,2020-11-20_18h29.18.417,test3,2020.2.4,Win32,60,,,,,,,,,
,,,,m,0.80254,0,139,139,139,1,paints/images/182.jpg,paints/images/348.jpg,140,Beri,1,2020-11-20_18h29.18.417,test3,2020.2.4,Win32,60,,,,,,,,,
,,,,m,2.974375,0,140,140,140,1,paints/images/379.jpg,paints/images/228.jpg,141,Beri,1,2020-11-20_18h29.18.417,test3,2020.2.4,Win32,60,,,,,,,,,
,,,,m,1.055695,0,141,141,141,1,paints/images/188.jpg,paints/images/13.jpg,142,Beri,1,2020-11-20_18h29.18.417,test3,2020.2.4,Win32,60,,,,,,,,,
,,,,m,0.86905,0,142,142,142,1,paints/images/40.jpg,paints/images/329.jpg,143,Beri,1,2020-11-20_18h29.18.417,test3,2020.2.4,Win32,60,,,,,,,,,
,,,,m,0.81665,0,143,143,143,1,paints/images/323.jpg,paints/images/165.jpg,144,Beri,1,2020-11-20_18h29.18.417,test3,2020.2.4,Win32,60,,,,,,,,,
,,,,m,1.435965,0,144,144,144,1,paints/images/78.jpg,paints/images/407.jpg,145,Beri,1,2020-11-20_18h29.18.417,test3,2020.2.4,Win32,60,,,,,,,,,
,,,,m,0.7614,0,145,145,145,1,paints/images/242.jpg,paints/images/75.jpg,146,Beri,1,2020-11-20_18h29.18.417,test3,2020.2.4,Win32,60,,,,,,,,,
,,,,m,0.92314,0,146,146,146,1,paints/images/62.jpg,paints/images/187.jpg,147,Beri,1,2020-11-20_18h29.18.417,test3,2020.2.4,Win32,60,,,,,,,,,
,,,,m,0.85177,0,147,147,147,1,paints/images/131.jpg,paints/images/285.jpg,148,Beri,1,2020-11-20_18h29.18.417,test3,2020.2.4,Win32,60,,,,,,,,,
,,,,m,1.10543,0,148,148,148,1,paints/images/241.jpg,paints/images/97.jpg,149,Beri,1,2020-11-20_18h29.18.417,test3,2020.2.4,Win32,60,,,,,,,,,
,,,,m,0.735125,0,149,149,149,1,paints/images/132.jpg,paints/images/289.jpg,150,Beri,1,2020-11-20_18h29.18.417,test3,2020.2.4,Win32,60,,,,,,,,,
,,,,z,3.622855,0,150,150,150,1,paints/images/185.jpg,paints/images/54.jpg,151,Beri,1,2020-11-20_18h29.18.417,test3,2020.2.4,Win32,60,,,,,,,,,
,,,,m,0.71356,0,151,151,151,1,paints/images/272.jpg,paints/images/51.jpg,152,Beri,1,2020-11-20_18h29.18.417,test3,2020.2.4,Win32,60,,,,,,,,,
,,,,m,1.05276,0,152,152,152,1,paints/images/403.jpg,paints/images/71.jpg,153,Beri,1,2020-11-20_18h29.18.417,test3,2020.2.4,Win32,60,,,,,,,,,
,,,,m,0.79061,0,153,153,153,1,paints/images/202.jpg,paints/images/219.jpg,154,Beri,1,2020-11-20_18h29.18.417,test3,2020.2.4,Win32,60,,,,,,,,,
,,,,m,0.941785,0,154,154,154,1,paints/images/34.jpg,paints/images/271.jpg,155,Beri,1,2020-11-20_18h29.18.417,test3,2020.2.4,Win32,60,,,,,,,,,
,,,,m,0.598745,0,155,155,155,1,paints/images/296.jpg,paints/images/90.jpg,156,Beri,1,2020-11-20_18h29.18.417,test3,2020.2.4,Win32,60,,,,,,,,,
,,,,m,0.817525,0,156,156,156,1,paints/images/25.jpg,paints/images/338.jpg,157,Beri,1,2020-11-20_18h29.18.417,test3,2020.2.4,Win32,60,,,,,,,,,
,,,,m,0.91033,0,157,157,157,1,paints/images/396.jpg,paints/images/78.jpg,158,Beri,1,2020-11-20_18h29.18.417,test3,2020.2.4,Win32,60,,,,,,,,,
,,,,m,1.14814,0,158,158,158,1,paints/images/72.jpg,paints/images/111.jpg,159,Beri,1,2020-11-20_18h29.18.417,test3,2020.2.4,Win32,60,,,,,,,,,
,,,,z,0.80363,0,159,159,159,1,paints/images/164.jpg,paints/images/16.jpg,160,Beri,1,2020-11-20_18h29.18.417,test3,2020.2.4,Win32,60,,,,,,,,,
,,,,z,1.03571,0,160,160,160,1,paints/images/387.jpg,paints/images/244.jpg,161,Beri,1,2020-11-20_18h29.18.417,test3,2020.2.4,Win32,60,,,,,,,,,
,,,,z,1.305005,0,161,161,161,1,paints/images/64.jpg,paints/images/260.jpg,162,Beri,1,2020-11-20_18h29.18.417,test3,2020.2.4,Win32,60,,,,,,,,,
,,,,m,0.786635,0,162,162,162,1,paints/images/160.jpg,paints/images/63.jpg,163,Beri,1,2020-11-20_18h29.18.417,test3,2020.2.4,Win32,60,,,,,,,,,
,,,,m,1.009735,0,163,163,163,1,paints/images/3.jpg,paints/images/282.jpg,164,Beri,1,2020-11-20_18h29.18.417,test3,2020.2.4,Win32,60,,,,,,,,,
,,,,m,0.77743,0,164,164,164,1,paints/images/307.jpg,paints/images/152.jpg,165,Beri,1,2020-11-20_18h29.18.417,test3,2020.2.4,Win32,60,,,,,,,,,
,,,,m,3.198185,0,165,165,165,1,paints/images/311.jpg,paints/images/123.jpg,166,Beri,1,2020-11-20_18h29.18.417,test3,2020.2.4,Win32,60,,,,,,,,,
,,,,z,0.90454,0,166,166,166,1,paints/images/143.jpg,paints/images/286.jpg,167,Beri,1,2020-11-20_18h29.18.417,test3,2020.2.4,Win32,60,,,,,,,,,
,,,,m,0.70775,0,167,167,167,1,paints/images/97.jpg,paints/images/216.jpg,168,Beri,1,2020-11-20_18h29.18.417,test3,2020.2.4,Win32,60,,,,,,,,,
,,,,z,1.781195,0,168,168,168,1,paints/images/395.jpg,paints/images/170.jpg,169,Beri,1,2020-11-20_18h29.18.417,test3,2020.2.4,Win32,60,,,,,,,,,
,,,,z,1.01713,0,169,169,169,1,paints/images/151.jpg,paints/images/26.jpg,170,Beri,1,2020-11-20_18h29.18.417,test3,2020.2.4,Win32,60,,,,,,,,,
,,,,z,1.08373,0,170,170,170,1,paints/images/51.jpg,paints/images/32.jpg,171,Beri,1,2020-11-20_18h29.18.417,test3,2020.2.4,Win32,60,,,,,,,,,
,,,,z,1.081825,0,171,171,171,1,paints/images/305.jpg,paints/images/176.jpg,172,Beri,1,2020-11-20_18h29.18.417,test3,2020.2.4,Win32,60,,,,,,,,,
,,,,m,0.73802,0,172,172,172,1,paints/images/137.jpg,paints/images/48.jpg,173,Beri,1,2020-11-20_18h29.18.417,test3,2020.2.4,Win32,60,,,,,,,,,
,,,,z,0.76141,0,173,173,173,1,paints/images/65.jpg,paints/images/243.jpg,174,Beri,1,2020-11-20_18h29.18.417,test3,2020.2.4,Win32,60,,,,,,,,,
,,,,m,0.586265,0,174,174,174,1,paints/images/115.jpg,paints/images/210.jpg,175,Beri,1,2020-11-20_18h29.18.417,test3,2020.2.4,Win32,60,,,,,,,,,
,,,,z,0.14288,0,175,175,175,1,paints/images/310.jpg,paints/images/58.jpg,176,Beri,1,2020-11-20_18h29.18.417,test3,2020.2.4,Win32,60,,,,,,,,,
,,,,m,0.586075,0,176,176,176,1,paints/images/1.jpg,paints/images/112.jpg,177,Beri,1,2020-11-20_18h29.18.417,test3,2020.2.4,Win32,60,,,,,,,,,
,,,,m,0.65254,0,177,177,177,1,paints/images/125.jpg,paints/images/17.jpg,178,Beri,1,2020-11-20_18h29.18.417,test3,2020.2.4,Win32,60,,,,,,,,,
,,,,z,0.53337,0,178,178,178,1,paints/images/279.jpg,paints/images/166.jpg,179,Beri,1,2020-11-20_18h29.18.417,test3,2020.2.4,Win32,60,,,,,,,,,
,,,,z,0.65338,0,179,179,179,1,paints/images/316.jpg,paints/images/306.jpg,180,Beri,1,2020-11-20_18h29.18.417,test3,2020.2.4,Win32,60,,,,,,,,,
,,,,m,0.741895,0,180,180,180,1,paints/images/22.jpg,paints/images/214.jpg,181,Beri,1,2020-11-20_18h29.18.417,test3,2020.2.4,Win32,60,,,,,,,,,
,,,,z,0.652655,0,181,181,181,1,paints/images/54.jpg,paints/images/235.jpg,182,Beri,1,2020-11-20_18h29.18.417,test3,2020.2.4,Win32,60,,,,,,,,,
,,,,m,0.86602,0,182,182,182,1,paints/images/225.jpg,paints/images/160.jpg,183,Beri,1,2020-11-20_18h29.18.417,test3,2020.2.4,Win32,60,,,,,,,,,
,,,,z,0.79177,0,183,183,183,1,paints/images/339.jpg,paints/images/59.jpg,184,Beri,1,2020-11-20_18h29.18.417,test3,2020.2.4,Win32,60,,,,,,,,,
,,,,m,1.066975,0,184,184,184,1,paints/images/409.jpg,paints/images/180.jpg,185,Beri,1,2020-11-20_18h29.18.417,test3,2020.2.4,Win32,60,,,,,,,,,
,,,,z,1.239035,0,185,185,185,1,paints/images/145.jpg,paints/images/115.jpg,186,Beri,1,2020-11-20_18h29.18.417,test3,2020.2.4,Win32,60,,,,,,,,,
,,,,z,0.825185,0,186,186,186,1,paints/images/147.jpg,paints/images/37.jpg,187,Beri,1,2020-11-20_18h29.18.417,test3,2020.2.4,Win32,60,,,,,,,,,
,,,,m,0.80282,0,187,187,187,1,paints/images/288.jpg,paints/images/64.jpg,188,Beri,1,2020-11-20_18h29.18.417,test3,2020.2.4,Win32,60,,,,,,,,,
,,,,z,0.86434,0,188,188,188,1,paints/images/235.jpg,paints/images/201.jpg,189,Beri,1,2020-11-20_18h29.18.417,test3,2020.2.4,Win32,60,,,,,,,,,
,,,,m,1.02571,0,189,189,189,1,paints/images/313.jpg,paints/images/2.jpg,190,Beri,1,2020-11-20_18h29.18.417,test3,2020.2.4,Win32,60,,,,,,,,,
,,,,m,2.688925,0,190,190,190,1,paints/images/329.jpg,paints/images/38.jpg,191,Beri,1,2020-11-20_18h29.18.417,test3,2020.2.4,Win32,60,,,,,,,,,
,,,,m,1.50405,0,191,191,191,1,paints/images/9.jpg,paints/images/241.jpg,192,Beri,1,2020-11-20_18h29.18.417,test3,2020.2.4,Win32,60,,,,,,,,,
,,,,m,0.701735,0,192,192,192,1,paints/images/364.jpg,paints/images/44.jpg,193,Beri,1,2020-11-20_18h29.18.417,test3,2020.2.4,Win32,60,,,,,,,,,
,,,,m,0.520705,0,193,193,193,1,paints/images/14.jpg,paints/images/109.jpg,194,Beri,1,2020-11-20_18h29.18.417,test3,2020.2.4,Win32,60,,,,,,,,,
,,,,m,0.7186,0,194,194,194,1,paints/images/0.jpg,paints/images/14.jpg,195,Beri,1,2020-11-20_18h29.18.417,test3,2020.2.4,Win32,60,,,,,,,,,
,,,,z,1.090825,0,195,195,195,1,paints/images/398.jpg,paints/images/247.jpg,196,Beri,1,2020-11-20_18h29.18.417,test3,2020.2.4,Win32,60,,,,,,,,,
,,,,m,0.56023,0,196,196,196,1,paints/images/377.jpg,paints/images/237.jpg,197,Beri,1,2020-11-20_18h29.18.417,test3,2020.2.4,Win32,60,,,,,,,,,
,,,,m,1.17908,0,197,197,197,1,paints/images/246.jpg,paints/images/184.jpg,198,Beri,1,2020-11-20_18h29.18.417,test3,2020.2.4,Win32,60,,,,,,,,,
,,,,z,1.01668,0,198,198,198,1,paints/images/299.jpg,paints/images/301.jpg,199,Beri,1,2020-11-20_18h29.18.417,test3,2020.2.4,Win32,60,,,,,,,,,
,,,,m,1.219295,0,199,199,199,1,paints/images/116.jpg,paints/images/148.jpg,200,Beri,1,2020-11-20_18h29.18.417,test3,2020.2.4,Win32,60,,,,,,,,,
,,,,m,3.682005,0,0,0,0,1,paints/images/267.jpg,paints/images/336.jpg,1,Beri,1,2020-11-20_18h29.18.417,test3,2020.2.4,Win32,60,space,1.20678,m,3.682005,0,0,0,0,1
,,,,z,0.88864,0,1,1,1,1,paints/images/6.jpg,paints/images/182.jpg,2,Beri,1,2020-11-20_18h29.18.417,test3,2020.2.4,Win32,60,,,z,0.88864,0,1,1,1,1
,,,,m,0.78561,0,2,2,2,1,paints/images/348.jpg,paints/images/105.jpg,3,Beri,1,2020-11-20_18h29.18.417,test3,2020.2.4,Win32,60,,,m,0.78561,0,2,2,2,1
,,,,m,1.07297,0,3,3,3,1,paints/images/404.jpg,paints/images/372.jpg,4,Beri,1,2020-11-20_18h29.18.417,test3,2020.2.4,Win32,60,,,m,1.07297,0,3,3,3,1
,,,,m,1.122105,0,4,4,4,1,paints/images/324.jpg,paints/images/134.jpg,5,Beri,1,2020-11-20_18h29.18.417,test3,2020.2.4,Win32,60,,,m,1.122105,0,4,4,4,1
,,,,m,0.95538,0,5,5,5,1,paints/images/278.jpg,paints/images/269.jpg,6,Beri,1,2020-11-20_18h29.18.417,test3,2020.2.4,Win32,60,,,m,0.95538,0,5,5,5,1
,,,,z,1.057335,0,6,6,6,1,paints/images/237.jpg,paints/images/375.jpg,7,Beri,1,2020-11-20_18h29.18.417,test3,2020.2.4,Win32,60,,,z,1.057335,0,6,6,6,1
,,,,m,1.23887,0,7,7,7,1,paints/images/109.jpg,paints/images/224.jpg,8,Beri,1,2020-11-20_18h29.18.417,test3,2020.2.4,Win32,60,,,m,1.23887,0,7,7,7,1
,,,,m,0.851585,0,8,8,8,1,paints/images/318.jpg,paints/images/127.jpg,9,Beri,1,2020-11-20_18h29.18.417,test3,2020.2.4,Win32,60,,,m,0.851585,0,8,8,8,1
,,,,z,0.72148,0,9,9,9,1,paints/images/120.jpg,paints/images/254.jpg,10,Beri,1,2020-11-20_18h29.18.417,test3,2020.2.4,Win32,60,,,z,0.72148,0,9,9,9,1
,,,,m,0.758765,0,10,10,10,1,paints/images/86.jpg,paints/images/67.jpg,11,Beri,1,2020-11-20_18h29.18.417,test3,2020.2.4,Win32,60,,,m,0.758765,0,10,10,10,1
,,,,m,0.778855,0,11,11,11,1,paints/images/302.jpg,paints/images/245.jpg,12,Beri,1,2020-11-20_18h29.18.417,test3,2020.2.4,Win32,60,,,m,0.778855,0,11,11,11,1
,,,,m,0.544515,0,12,12,12,1,paints/images/94.jpg,paints/images/242.jpg,13,Beri,1,2020-11-20_18h29.18.417,test3,2020.2.4,Win32,60,,,m,0.544515,0,12,12,12,1
,,,,z,1.14275,0,13,13,13,1,paints/images/295.jpg,paints/images/72.jpg,14,Beri,1,2020-11-20_18h29.18.417,test3,2020.2.4,Win32,60,,,z,1.14275,0,13,13,13,1
,,,,m,0.952485,0,14,14,14,1,paints/images/227.jpg,paints/images/175.jpg,15,Beri,1,2020-11-20_18h29.18.417,test3,2020.2.4,Win32,60,,,m,0.952485,0,14,14,14,1
,,,,m,0.634255,0,15,15,15,1,paints/images/26.jpg,paints/images/203.jpg,16,Beri,1,2020-11-20_18h29.18.417,test3,2020.2.4,Win32,60,,,m,0.634255,0,15,15,15,1
,,,,z,0.94976,0,16,16,16,1,paints/images/45.jpg,paints/images/272.jpg,17,Beri,1,2020-11-20_18h29.18.417,test3,2020.2.4,Win32,60,,,z,0.94976,0,16,16,16,1
,,,,m,1.050935,0,17,17,17,1,paints/images/410.jpg,paints/images/185.jpg,18,Beri,1,2020-11-20_18h29.18.417,test3,2020.2.4,Win32,60,,,m,1.050935,0,17,17,17,1
,,,,m,0.8136,0,18,18,18,1,paints/images/380.jpg,paints/images/0.jpg,19,Beri,1,2020-11-20_18h29.18.417,test3,2020.2.4,Win32,60,,,m,0.8136,0,18,18,18,1
,,,,m,0.55665,0,19,19,19,1,paints/images/370.jpg,paints/images/106.jpg,20,Beri,1,2020-11-20_18h29.18.417,test3,2020.2.4,Win32,60,,,m,0.55665,0,19,19,19,1
,,,,z,0.7214,0,20,20,20,1,paints/images/102.jpg,paints/images/309.jpg,21,Beri,1,2020-11-20_18h29.18.417,test3,2020.2.4,Win32,60,,,z,0.7214,0,20,20,20,1
,,,,m,0.568115,0,21,21,21,1,paints/images/167.jpg,paints/images/299.jpg,22,Beri,1,2020-11-20_18h29.18.417,test3,2020.2.4,Win32,60,,,m,0.568115,0,21,21,21,1
,,,,z,0.75713,0,22,22,22,1,paints/images/290.jpg,paints/images/192.jpg,23,Beri,1,2020-11-20_18h29.18.417,test3,2020.2.4,Win32,60,,,z,0.75713,0,22,22,22,1
,,,,m,0.752225,0,23,23,23,1,paints/images/82.jpg,paints/images/353.jpg,24,Beri,1,2020-11-20_18h29.18.417,test3,2020.2.4,Win32,60,,,m,0.752225,0,23,23,23,1
,,,,m,0.64571,0,24,24,24,1,paints/images/75.jpg,paints/images/404.jpg,25,Beri,1,2020-11-20_18h29.18.417,test3,2020.2.4,Win32,60,,,m,0.64571,0,24,24,24,1
,,,,m,0.619095,0,25,25,25,1,paints/images/117.jpg,paints/images/100.jpg,26,Beri,1,2020-11-20_18h29.18.417,test3,2020.2.4,Win32,60,,,m,0.619095,0,25,25,25,1
,,,,m,0.76283,0,26,26,26,1,paints/images/200.jpg,paints/images/378.jpg,27,Beri,1,2020-11-20_18h29.18.417,test3,2020.2.4,Win32,60,,,m,0.76283,0,26,26,26,1
,,,,z,0.751655,0,27,27,27,1,paints/images/371.jpg,paints/images/57.jpg,28,Beri,1,2020-11-20_18h29.18.417,test3,2020.2.4,Win32,60,,,z,0.751655,0,27,27,27,1
,,,,m,1.04095,0,28,28,28,1,paints/images/87.jpg,paints/images/302.jpg,29,Beri,1,2020-11-20_18h29.18.417,test3,2020.2.4,Win32,60,,,m,1.04095,0,28,28,28,1
,,,,z,0.817255,0,29,29,29,1,paints/images/208.jpg,paints/images/39.jpg,30,Beri,1,2020-11-20_18h29.18.417,test3,2020.2.4,Win32,60,,,z,0.817255,0,29,29,29,1
,,,,m,0.871355,0,30,30,30,1,paints/images/198.jpg,paints/images/200.jpg,31,Beri,1,2020-11-20_18h29.18.417,test3,2020.2.4,Win32,60,,,m,0.871355,0,30,30,30,1
,,,,m,1.1139,0,31,31,31,1,paints/images/43.jpg,paints/images/42.jpg,32,Beri,1,2020-11-20_18h29.18.417,test3,2020.2.4,Win32,60,,,m,1.1139,0,31,31,31,1
,,,,m,0.655115,0,32,32,32,1,paints/images/286.jpg,paints/images/376.jpg,33,Beri,1,2020-11-20_18h29.18.417,test3,2020.2.4,Win32,60,,,m,0.655115,0,32,32,32,1
,,,,z,1.18227,0,33,33,33,1,paints/images/275.jpg,paints/images/76.jpg,34,Beri,1,2020-11-20_18h29.18.417,test3,2020.2.4,Win32,60,,,z,1.18227,0,33,33,33,1
,,,,z,1.26249,0,34,34,34,1,paints/images/138.jpg,paints/images/129.jpg,35,Beri,1,2020-11-20_18h29.18.417,test3,2020.2.4,Win32,60,,,z,1.26249,0,34,34,34,1
,,,,z,1.047075,0,35,35,35,1,paints/images/386.jpg,paints/images/366.jpg,36,Beri,1,2020-11-20_18h29.18.417,test3,2020.2.4,Win32,60,,,z,1.047075,0,35,35,35,1
,,,,z,1.019405,0,36,36,36,1,paints/images/232.jpg,paints/images/215.jpg,37,Beri,1,2020-11-20_18h29.18.417,test3,2020.2.4,Win32,60,,,z,1.019405,0,36,36,36,1
,,,,z,0.962465,0,37,37,37,1,paints/images/122.jpg,paints/images/199.jpg,38,Beri,1,2020-11-20_18h29.18.417,test3,2020.2.4,Win32,60,,,z,0.962465,0,37,37,37,1
,,,,m,0.88065,0,38,38,38,1,paints/images/388.jpg,paints/images/169.jpg,39,Beri,1,2020-11-20_18h29.18.417,test3,2020.2.4,Win32,60,,,m,0.88065,0,38,38,38,1
,,,,z,0.64737,0,39,39,39,1,paints/images/399.jpg,paints/images/229.jpg,40,Beri,1,2020-11-20_18h29.18.417,test3,2020.2.4,Win32,60,,,z,0.64737,0,39,39,39,1
,,,,z,0.98382,0,40,40,40,1,paints/images/300.jpg,paints/images/1.jpg,41,Beri,1,2020-11-20_18h29.18.417,test3,2020.2.4,Win32,60,,,z,0.98382,0,40,40,40,1
,,,,m,1.38809,0,41,41,41,1,paints/images/195.jpg,paints/images/399.jpg,42,Beri,1,2020-11-20_18h29.18.417,test3,2020.2.4,Win32,60,,,m,1.38809,0,41,41,41,1
,,,,z,0.64928,0,42,42,42,1,paints/images/281.jpg,paints/images/277.jpg,43,Beri,1,2020-11-20_18h29.18.417,test3,2020.2.4,Win32,60,,,z,0.64928,0,42,42,42,1
,,,,z,1.504435,0,43,43,43,1,paints/images/103.jpg,paints/images/288.jpg,44,Beri,1,2020-11-20_18h29.18.417,test3,2020.2.4,Win32,60,,,z,1.504435,0,43,43,43,1
,,,,m,0.91836,0,44,44,44,1,paints/images/297.jpg,paints/images/222.jpg,45,Beri,1,2020-11-20_18h29.18.417,test3,2020.2.4,Win32,60,,,m,0.91836,0,44,44,44,1
,,,,m,1.70465,0,45,45,45,1,paints/images/394.jpg,paints/images/258.jpg,46,Beri,1,2020-11-20_18h29.18.417,test3,2020.2.4,Win32,60,,,m,1.70465,0,45,45,45,1
,,,,m,0.809155,0,46,46,46,1,paints/images/73.jpg,paints/images/49.jpg,47,Beri,1,2020-11-20_18h29.18.417,test3,2020.2.4,Win32,60,,,m,0.809155,0,46,46,46,1
,,,,z,0.89871,0,47,47,47,1,paints/images/112.jpg,paints/images/80.jpg,48,Beri,1,2020-11-20_18h29.18.417,test3,2020.2.4,Win32,60,,,z,0.89871,0,47,47,47,1
,,,,z,0.76482,0,48,48,48,1,paints/images/245.jpg,paints/images/358.jpg,49,Beri,1,2020-11-20_18h29.18.417,test3,2020.2.4,Win32,60,,,z,0.76482,0,48,48,48,1
,,,,z,0.93231,0,49,49,49,1,paints/images/347.jpg,paints/images/143.jpg,50,Beri,1,2020-11-20_18h29.18.417,test3,2020.2.4,Win32,60,,,z,0.93231,0,49,49,49,1
,,,,m,0.84819,0,50,50,50,1,paints/images/352.jpg,paints/images/145.jpg,51,Beri,1,2020-11-20_18h29.18.417,test3,2020.2.4,Win32,60,,,m,0.84819,0,50,50,50,1
,,,,z,0.999465,0,51,51,51,1,paints/images/69.jpg,paints/images/162.jpg,52,Beri,1,2020-11-20_18h29.18.417,test3,2020.2.4,Win32,60,,,z,0.999465,0,51,51,51,1
,,,,z,0.90955,0,52,52,52,1,paints/images/381.jpg,paints/images/202.jpg,53,Beri,1,2020-11-20_18h29.18.417,test3,2020.2.4,Win32,60,,,z,0.90955,0,52,52,52,1
,,,,z,1.332835,0,53,53,53,1,paints/images/361.jpg,paints/images/340.jpg,54,Beri,1,2020-11-20_18h29.18.417,test3,2020.2.4,Win32,60,,,z,1.332835,0,53,53,53,1
,,,,m,0.65446,0,54,54,54,1,paints/images/217.jpg,paints/images/9.jpg,55,Beri,1,2020-11-20_18h29.18.417,test3,2020.2.4,Win32,60,,,m,0.65446,0,54,54,54,1
,,,,z,0.781405,0,55,55,55,1,paints/images/8.jpg,paints/images/409.jpg,56,Beri,1,2020-11-20_18h29.18.417,test3,2020.2.4,Win32,60,,,z,0.781405,0,55,55,55,1
,,,,m,0.736565,0,56,56,56,1,paints/images/59.jpg,paints/images/33.jpg,57,Beri,1,2020-11-20_18h29.18.417,test3,2020.2.4,Win32,60,,,m,0.736565,0,56,56,56,1
,,,,z,0.896755,0,57,57,57,1,paints/images/21.jpg,paints/images/311.jpg,58,Beri,1,2020-11-20_18h29.18.417,test3,2020.2.4,Win32,60,,,z,0.896755,0,57,57,57,1
,,,,z,1.17367,0,58,58,58,1,paints/images/408.jpg,paints/images/31.jpg,59,Beri,1,2020-11-20_18h29.18.417,test3,2020.2.4,Win32,60,,,z,1.17367,0,58,58,58,1
,,,,z,0.63794,0,59,59,59,1,paints/images/98.jpg,paints/images/3.jpg,60,Beri,1,2020-11-20_18h29.18.417,test3,2020.2.4,Win32,60,,,z,0.63794,0,59,59,59,1
,,,,m,0.730315,0,60,60,60,1,paints/images/336.jpg,paints/images/138.jpg,61,Beri,1,2020-11-20_18h29.18.417,test3,2020.2.4,Win32,60,,,m,0.730315,0,60,60,60,1
,,,,m,0.674615,0,61,61,61,1,paints/images/186.jpg,paints/images/395.jpg,62,Beri,1,2020-11-20_18h29.18.417,test3,2020.2.4,Win32,60,,,m,0.674615,0,61,61,61,1
,,,,m,1.21422,0,62,62,62,1,paints/images/76.jpg,paints/images/405.jpg,63,Beri,1,2020-11-20_18h29.18.417,test3,2020.2.4,Win32,60,,,m,1.21422,0,62,62,62,1
,,,,z,0.9752,0,63,63,63,1,paints/images/171.jpg,paints/images/381.jpg,64,Beri,1,2020-11-20_18h29.18.417,test3,2020.2.4,Win32,60,,,z,0.9752,0,63,63,63,1
,,,,z,0.719975,0,64,64,64,1,paints/images/220.jpg,paints/images/70.jpg,65,Beri,1,2020-11-20_18h29.18.417,test3,2020.2.4,Win32,60,,,z,0.719975,0,64,64,64,1
,,,,m,0.512785,0,65,65,65,1,paints/images/337.jpg,paints/images/339.jpg,66,Beri,1,2020-11-20_18h29.18.417,test3,2020.2.4,Win32,60,,,m,0.512785,0,65,65,65,1
,,,,m,0.57483,0,66,66,66,1,paints/images/258.jpg,paints/images/85.jpg,67,Beri,1,2020-11-20_18h29.18.417,test3,2020.2.4,Win32,60,,,m,0.57483,0,66,66,66,1
,,,,z,0.62176,0,67,67,67,1,paints/images/273.jpg,paints/images/113.jpg,68,Beri,1,2020-11-20_18h29.18.417,test3,2020.2.4,Win32,60,,,z,0.62176,0,67,67,67,1
,,,,m,0.500075,0,68,68,68,1,paints/images/353.jpg,paints/images/368.jpg,69,Beri,1,2020-11-20_18h29.18.417,test3,2020.2.4,Win32,60,,,m,0.500075,0,68,68,68,1
,,,,z,0.851795,0,69,69,69,1,paints/images/187.jpg,paints/images/86.jpg,70,Beri,1,2020-11-20_18h29.18.417,test3,2020.2.4,Win32,60,,,z,0.851795,0,69,69,69,1
,,,,z,0.772365,0,70,70,70,1,paints/images/176.jpg,paints/images/193.jpg,71,Beri,1,2020-11-20_18h29.18.417,test3,2020.2.4,Win32,60,,,z,0.772365,0,70,70,70,1
,,,,z,0.762755,0,71,71,71,1,paints/images/175.jpg,paints/images/194.jpg,72,Beri,1,2020-11-20_18h29.18.417,test3,2020.2.4,Win32,60,,,z,0.762755,0,71,71,71,1
,,,,m,1.248635,0,72,72,72,1,paints/images/407.jpg,paints/images/81.jpg,73,Beri,1,2020-11-20_18h29.18.417,test3,2020.2.4,Win32,60,,,m,1.248635,0,72,72,72,1
,,,,m,0.74835,0,73,73,73,1,paints/images/276.jpg,paints/images/77.jpg,74,Beri,1,2020-11-20_18h29.18.417,test3,2020.2.4,Win32,60,,,m,0.74835,0,73,73,73,1
,,,,z,1.34986,0,74,74,74,1,paints/images/291.jpg,paints/images/314.jpg,75,Beri,1,2020-11-20_18h29.18.417,test3,2020.2.4,Win32,60,,,z,1.34986,0,74,74,74,1
,,,,m,0.806295,0,75,75,75,1,paints/images/127.jpg,paints/images/36.jpg,76,Beri,1,2020-11-20_18h29.18.417,test3,2020.2.4,Win32,60,,,m,0.806295,0,75,75,75,1
,,,,m,0.722375,0,76,76,76,1,paints/images/372.jpg,paints/images/161.jpg,77,Beri,1,2020-11-20_18h29.18.417,test3,2020.2.4,Win32,60,,,m,0.722375,0,76,76,76,1
,,,,z,0.691015,0,77,77,77,1,paints/images/283.jpg,paints/images/350.jpg,78,Beri,1,2020-11-20_18h29.18.417,test3,2020.2.4,Win32,60,,,z,0.691015,0,77,77,77,1
,,,,z,2.222665,0,78,78,78,1,paints/images/106.jpg,paints/images/68.jpg,79,Beri,1,2020-11-20_18h29.18.417,test3,2020.2.4,Win32,60,,,z,2.222665,0,78,78,78,1
,,,,z,0.87041,0,79,79,79,1,paints/images/224.jpg,paints/images/266.jpg,80,Beri,1,2020-11-20_18h29.18.417,test3,2020.2.4,Win32,60,,,z,0.87041,0,79,79,79,1
,,,,m,1.078265,0,80,80,80,1,paints/images/375.jpg,paints/images/264.jpg,81,Beri,1,2020-11-20_18h29.18.417,test3,2020.2.4,Win32,60,,,m,1.078265,0,80,80,80,1
,,,,m,0.8267,0,81,81,81,1,paints/images/47.jpg,paints/images/87.jpg,82,Beri,1,2020-11-20_18h29.18.417,test3,2020.2.4,Win32,60,,,m,0.8267,0,81,81,81,1
,,,,m,1.4491,0,82,82,82,1,paints/images/38.jpg,paints/images/298.jpg,83,Beri,1,2020-11-20_18h29.18.417,test3,2020.2.4,Win32,60,,,m,1.4491,0,82,82,82,1
,,,,z,0.682015,0,83,83,83,1,paints/images/161.jpg,paints/images/28.jpg,84,Beri,1,2020-11-20_18h29.18.417,test3,2020.2.4,Win32,60,,,z,0.682015,0,83,83,83,1
,,,,m,0.612065,0,84,84,84,1,paints/images/298.jpg,paints/images/345.jpg,85,Beri,1,2020-11-20_18h29.18.417,test3,2020.2.4,Win32,60,,,m,0.612065,0,84,84,84,1
,,,,z,0.83998,0,85,85,85,1,paints/images/163.jpg,paints/images/205.jpg,86,Beri,1,2020-11-20_18h29.18.417,test3,2020.2.4,Win32,60,,,z,0.83998,0,85,85,85,1
,,,,z,0.946865,0,86,86,86,1,paints/images/121.jpg,paints/images/252.jpg,87,Beri,1,2020-11-20_18h29.18.417,test3,2020.2.4,Win32,60,,,z,0.946865,0,86,86,86,1
,,,,m,1.478855,0,87,87,87,1,paints/images/247.jpg,paints/images/95.jpg,88,Beri,1,2020-11-20_18h29.18.417,test3,2020.2.4,Win32,60,,,m,1.478855,0,87,87,87,1
,,,,z,1.116135,0,88,88,88,1,paints/images/321.jpg,paints/images/150.jpg,89,Beri,1,2020-11-20_18h29.18.417,test3,2020.2.4,Win32,60,,,z,1.116135,0,88,88,88,1
,,,,m,1.00383,0,89,89,89,1,paints/images/46.jpg,paints/images/226.jpg,90,Beri,1,2020-11-20_18h29.18.417,test3,2020.2.4,Win32,60,,,m,1.00383,0,89,89,89,1
,,,,m,1.034095,0,90,90,90,1,paints/images/154.jpg,paints/images/263.jpg,91,Beri,1,2020-11-20_18h29.18.417,test3,2020.2.4,Win32,60,,,m,1.034095,0,90,90,90,1
,,,,m,0.74469,0,91,91,91,1,paints/images/191.jpg,paints/images/158.jpg,92,Beri,1,2020-11-20_18h29.18.417,test3,2020.2.4,Win32,60,,,m,0.74469,0,91,91,91,1
,,,,m,1.2708,0,92,92,92,1,paints/images/49.jpg,paints/images/227.jpg,93,Beri,1,2020-11-20_18h29.18.417,test3,2020.2.4,Win32,60,,,m,1.2708,0,92,92,92,1
,,,,z,0.98199,0,93,93,93,1,paints/images/124.jpg,paints/images/89.jpg,94,Beri,1,2020-11-20_18h29.18.417,test3,2020.2.4,Win32,60,,,z,0.98199,0,93,93,93,1
,,,,z,1.377265,0,94,94,94,1,paints/images/390.jpg,paints/images/43.jpg,95,Beri,1,2020-11-20_18h29.18.417,test3,2020.2.4,Win32,60,,,z,1.377265,0,94,94,94,1
,,,,m,0.77426,0,95,95,95,1,paints/images/42.jpg,paints/images/268.jpg,96,Beri,1,2020-11-20_18h29.18.417,test3,2020.2.4,Win32,60,,,m,0.77426,0,95,95,95,1
,,,,z,1.82586,0,96,96,96,1,paints/images/113.jpg,paints/images/386.jpg,97,Beri,1,2020-11-20_18h29.18.417,test3,2020.2.4,Win32,60,,,z,1.82586,0,96,96,96,1
,,,,m,1.382955,0,97,97,97,1,paints/images/287.jpg,paints/images/307.jpg,98,Beri,1,2020-11-20_18h29.18.417,test3,2020.2.4,Win32,60,,,m,1.382955,0,97,97,97,1
,,,,m,1.402185,0,98,98,98,1,paints/images/134.jpg,paints/images/300.jpg,99,Beri,1,2020-11-20_18h29.18.417,test3,2020.2.4,Win32,60,,,m,1.402185,0,98,98,98,1
,,,,m,1.397525,0,99,99,99,1,paints/images/60.jpg,paints/images/206.jpg,100,Beri,1,2020-11-20_18h29.18.417,test3,2020.2.4,Win32,60,,,m,1.397525,0,99,99,99,1
,,,,m,1.62824,0,100,100,100,1,paints/images/384.jpg,paints/images/335.jpg,101,Beri,1,2020-11-20_18h29.18.417,test3,2020.2.4,Win32,60,,,m,1.62824,0,100,100,100,1
,,,,m,3.51377,0,101,101,101,1,paints/images/326.jpg,paints/images/139.jpg,102,Beri,1,2020-11-20_18h29.18.417,test3,2020.2.4,Win32,60,,,m,3.51377,0,101,101,101,1
,,,,m,1.245855,0,102,102,102,1,paints/images/166.jpg,paints/images/374.jpg,103,Beri,1,2020-11-20_18h29.18.417,test3,2020.2.4,Win32,60,,,m,1.245855,0,102,102,102,1
,,,,z,2.688685,0,103,103,103,1,paints/images/360.jpg,paints/images/10.jpg,104,Beri,1,2020-11-20_18h29.18.417,test3,2020.2.4,Win32,60,,,z,2.688685,0,103,103,103,1
,,,,z,4.18653,0,104,104,104,1,paints/images/158.jpg,paints/images/149.jpg,105,Beri,1,2020-11-20_18h29.18.417,test3,2020.2.4,Win32,60,,,z,4.18653,0,104,104,104,1
,,,,z,0.90089,0,105,105,105,1,paints/images/159.jpg,paints/images/362.jpg,106,Beri,1,2020-11-20_18h29.18.417,test3,2020.2.4,Win32,60,,,z,0.90089,0,105,105,105,1
,,,,m,1.459395,0,106,106,106,1,paints/images/214.jpg,paints/images/116.jpg,107,Beri,1,2020-11-20_18h29.18.417,test3,2020.2.4,Win32,60,,,m,1.459395,0,106,106,106,1
,,,,m,0.985045,0,107,107,107,1,paints/images/256.jpg,paints/images/323.jpg,108,Beri,1,2020-11-20_18h29.18.417,test3,2020.2.4,Win32,60,,,m,0.985045,0,107,107,107,1
,,,,m,1.152265,0,108,108,108,1,paints/images/36.jpg,paints/images/157.jpg,109,Beri,1,2020-11-20_18h29.18.417,test3,2020.2.4,Win32,60,,,m,1.152265,0,108,108,108,1
,,,,z,1.77093,0,109,109,109,1,paints/images/101.jpg,paints/images/126.jpg,110,Beri,1,2020-11-20_18h29.18.417,test3,2020.2.4,Win32,60,,,z,1.77093,0,109,109,109,1
,,,,z,0.821655,0,110,110,110,1,paints/images/265.jpg,paints/images/35.jpg,111,Beri,1,2020-11-20_18h29.18.417,test3,2020.2.4,Win32,60,,,z,0.821655,0,110,110,110,1
,,,,m,2.70421,0,111,111,111,1,paints/images/392.jpg,paints/images/233.jpg,112,Beri,1,2020-11-20_18h29.18.417,test3,2020.2.4,Win32,60,,,m,2.70421,0,111,111,111,1
,,,,z,0.95996,0,112,112,112,1,paints/images/251.jpg,paints/images/12.jpg,113,Beri,1,2020-11-20_18h29.18.417,test3,2020.2.4,Win32,60,,,z,0.95996,0,112,112,112,1
,,,,m,0.83179,0,113,113,113,1,paints/images/12.jpg,paints/images/144.jpg,114,Beri,1,2020-11-20_18h29.18.417,test3,2020.2.4,Win32,60,,,m,0.83179,0,113,113,113,1
,,,,z,1.109865,0,114,114,114,1,paints/images/133.jpg,paints/images/331.jpg,115,Beri,1,2020-11-20_18h29.18.417,test3,2020.2.4,Win32,60,,,z,1.109865,0,114,114,114,1
,,,,m,0.896295,0,115,115,115,1,paints/images/383.jpg,paints/images/99.jpg,116,Beri,1,2020-11-20_18h29.18.417,test3,2020.2.4,Win32,60,,,m,0.896295,0,115,115,115,1
,,,,z,1.235945,0,116,116,116,1,paints/images/211.jpg,paints/images/303.jpg,117,Beri,1,2020-11-20_18h29.18.417,test3,2020.2.4,Win32,60,,,z,1.235945,0,116,116,116,1
,,,,m,0.72878,0,117,117,117,1,paints/images/201.jpg,paints/images/238.jpg,118,Beri,1,2020-11-20_18h29.18.417,test3,2020.2.4,Win32,60,,,m,0.72878,0,117,117,117,1
,,,,m,0.795415,0,118,118,118,1,paints/images/205.jpg,paints/images/102.jpg,119,Beri,1,2020-11-20_18h29.18.417,test3,2020.2.4,Win32,60,,,m,0.795415,0,118,118,118,1
,,,,m,2.86352,0,119,119,119,1,paints/images/270.jpg,paints/images/322.jpg,120,Beri,1,2020-11-20_18h29.18.417,test3,2020.2.4,Win32,60,,,m,2.86352,0,119,119,119,1
,,,,m,1.67325,0,120,120,120,1,paints/images/341.jpg,paints/images/248.jpg,121,Beri,1,2020-11-20_18h29.18.417,test3,2020.2.4,Win32,60,,,m,1.67325,0,120,120,120,1
,,,,m,0.8237,0,121,121,121,1,paints/images/141.jpg,paints/images/94.jpg,122,Beri,1,2020-11-20_18h29.18.417,test3,2020.2.4,Win32,60,,,m,0.8237,0,121,121,121,1
,,,,z,0.803325,0,122,122,122,1,paints/images/83.jpg,paints/images/327.jpg,123,Beri,1,2020-11-20_18h29.18.417,test3,2020.2.4,Win32,60,,,z,0.803325,0,122,122,122,1
,,,,z,0.90564,0,123,123,123,1,paints/images/327.jpg,paints/images/110.jpg,124,Beri,1,2020-11-20_18h29.18.417,test3,2020.2.4,Win32,60,,,z,0.90564,0,123,123,123,1
,,,,z,0.919675,0,124,124,124,1,paints/images/157.jpg,paints/images/79.jpg,125,Beri,1,2020-11-20_18h29.18.417,test3,2020.2.4,Win32,60,,,z,0.919675,0,124,124,124,1
,,,,m,1.48225,0,125,125,125,1,paints/images/193.jpg,paints/images/74.jpg,126,Beri,1,2020-11-20_18h29.18.417,test3,2020.2.4,Win32,60,,,m,1.48225,0,125,125,125,1
,,,,z,0.987925,0,126,126,126,1,paints/images/140.jpg,paints/images/292.jpg,127,Beri,1,2020-11-20_18h29.18.417,test3,2020.2.4,Win32,60,,,z,0.987925,0,126,126,126,1
,,,,z,0.994165,0,127,127,127,1,paints/images/107.jpg,paints/images/92.jpg,128,Beri,1,2020-11-20_18h29.18.417,test3,2020.2.4,Win32,60,,,z,0.994165,0,127,127,127,1
,,,,m,0.93739,0,128,128,128,1,paints/images/7.jpg,paints/images/56.jpg,129,Beri,1,2020-11-20_18h29.18.417,test3,2020.2.4,Win32,60,,,m,0.93739,0,128,128,128,1
,,,,m,0.769165,0,129,129,129,1,paints/images/177.jpg,paints/images/141.jpg,130,Beri,1,2020-11-20_18h29.18.417,test3,2020.2.4,Win32,60,,,m,0.769165,0,129,129,129,1
,,,,m,0.72101,0,130,130,130,1,paints/images/244.jpg,paints/images/250.jpg,131,Beri,1,2020-11-20_18h29.18.417,test3,2020.2.4,Win32,60,,,m,0.72101,0,130,130,130,1
,,,,z,0.59996,0,131,131,131,1,paints/images/253.jpg,paints/images/8.jpg,132,Beri,1,2020-11-20_18h29.18.417,test3,2020.2.4,Win32,60,,,z,0.59996,0,131,131,131,1
,,,,m,0.567515,0,132,132,132,1,paints/images/136.jpg,paints/images/108.jpg,133,Beri,1,2020-11-20_18h29.18.417,test3,2020.2.4,Win32,60,,,m,0.567515,0,132,132,132,1
,,,,z,0.472345,0,133,133,133,1,paints/images/165.jpg,paints/images/147.jpg,134,Beri,1,2020-11-20_18h29.18.417,test3,2020.2.4,Win32,60,,,z,0.472345,0,133,133,133,1
,,,,m,0.495895,0,134,134,134,1,paints/images/39.jpg,paints/images/387.jpg,135,Beri,1,2020-11-20_18h29.18.417,test3,2020.2.4,Win32,60,,,m,0.495895,0,134,134,134,1
,,,,z,0.58153,0,135,135,135,1,paints/images/271.jpg,paints/images/125.jpg,136,Beri,1,2020-11-20_18h29.18.417,test3,2020.2.4,Win32,60,,,z,0.58153,0,135,135,135,1
,,,,z,0.51216,0,136,136,136,1,paints/images/90.jpg,paints/images/130.jpg,137,Beri,1,2020-11-20_18h29.18.417,test3,2020.2.4,Win32,60,,,z,0.51216,0,136,136,136,1
,,,,m,0.897665,0,137,137,137,1,paints/images/362.jpg,paints/images/60.jpg,138,Beri,1,2020-11-20_18h29.18.417,test3,2020.2.4,Win32,60,,,m,0.897665,0,137,137,137,1
,,,,z,0.550445,0,138,138,138,1,paints/images/218.jpg,paints/images/153.jpg,139,Beri,1,2020-11-20_18h29.18.417,test3,2020.2.4,Win32,60,,,z,0.550445,0,138,138,138,1
,,,,z,1.09404,0,139,139,139,1,paints/images/18.jpg,paints/images/324.jpg,140,Beri,1,2020-11-20_18h29.18.417,test3,2020.2.4,Win32,60,,,z,1.09404,0,139,139,139,1
,,,,m,0.92893,0,140,140,140,1,paints/images/29.jpg,paints/images/120.jpg,141,Beri,1,2020-11-20_18h29.18.417,test3,2020.2.4,Win32,60,,,m,0.92893,0,140,140,140,1
,,,,z,0.714055,0,141,141,141,1,paints/images/155.jpg,paints/images/142.jpg,142,Beri,1,2020-11-20_18h29.18.417,test3,2020.2.4,Win32,60,,,z,0.714055,0,141,141,141,1
,,,,m,1.002695,0,142,142,142,1,paints/images/148.jpg,paints/images/396.jpg,143,Beri,1,2020-11-20_18h29.18.417,test3,2020.2.4,Win32,60,,,m,1.002695,0,142,142,142,1
,,,,m,1.31006,0,143,143,143,1,paints/images/373.jpg,paints/images/218.jpg,144,Beri,1,2020-11-20_18h29.18.417,test3,2020.2.4,Win32,60,,,m,1.31006,0,143,143,143,1
,,,,z,0.77608,0,144,144,144,1,paints/images/231.jpg,paints/images/73.jpg,145,Beri,1,2020-11-20_18h29.18.417,test3,2020.2.4,Win32,60,,,z,0.77608,0,144,144,144,1
,,,,z,0.84279,0,145,145,145,1,paints/images/240.jpg,paints/images/356.jpg,146,Beri,1,2020-11-20_18h29.18.417,test3,2020.2.4,Win32,60,,,z,0.84279,0,145,145,145,1
,,,,m,0.66597,0,146,146,146,1,paints/images/332.jpg,paints/images/347.jpg,147,Beri,1,2020-11-20_18h29.18.417,test3,2020.2.4,Win32,60,,,m,0.66597,0,146,146,146,1
,,,,z,0.623385,0,147,147,147,1,paints/images/254.jpg,paints/images/310.jpg,148,Beri,1,2020-11-20_18h29.18.417,test3,2020.2.4,Win32,60,,,z,0.623385,0,147,147,147,1
,,,,m,1.257205,0,148,148,148,1,paints/images/405.jpg,paints/images/385.jpg,149,Beri,1,2020-11-20_18h29.18.417,test3,2020.2.4,Win32,60,,,m,1.257205,0,148,148,148,1
,,,,z,1.08626,0,149,149,149,1,paints/images/345.jpg,paints/images/274.jpg,150,Beri,1,2020-11-20_18h29.18.417,test3,2020.2.4,Win32,60,,,z,1.08626,0,149,149,149,1
,,,,m,1.26333,0,150,150,150,1,paints/images/363.jpg,paints/images/18.jpg,151,Beri,1,2020-11-20_18h29.18.417,test3,2020.2.4,Win32,60,,,m,1.26333,0,150,150,150,1
,,,,m,0.663775,0,151,151,151,1,paints/images/37.jpg,paints/images/53.jpg,152,Beri,1,2020-11-20_18h29.18.417,test3,2020.2.4,Win32,60,,,m,0.663775,0,151,151,151,1
,,,,z,0.808815,0,152,152,152,1,paints/images/315.jpg,paints/images/319.jpg,153,Beri,1,2020-11-20_18h29.18.417,test3,2020.2.4,Win32,60,,,z,0.808815,0,152,152,152,1
,,,,z,1.27594,0,153,153,153,1,paints/images/74.jpg,paints/images/403.jpg,154,Beri,1,2020-11-20_18h29.18.417,test3,2020.2.4,Win32,60,,,z,1.27594,0,153,153,153,1
,,,,m,1.11075,0,154,154,154,1,paints/images/156.jpg,paints/images/246.jpg,155,Beri,1,2020-11-20_18h29.18.417,test3,2020.2.4,Win32,60,,,m,1.11075,0,154,154,154,1
,,,,z,0.838705,0,155,155,155,1,paints/images/285.jpg,paints/images/270.jpg,156,Beri,1,2020-11-20_18h29.18.417,test3,2020.2.4,Win32,60,,,z,0.838705,0,155,155,155,1
,,,,m,0.98684,0,156,156,156,1,paints/images/17.jpg,paints/images/398.jpg,157,Beri,1,2020-11-20_18h29.18.417,test3,2020.2.4,Win32,60,,,m,0.98684,0,156,156,156,1
,,,,z,1.64247,0,157,157,157,1,paints/images/335.jpg,paints/images/27.jpg,158,Beri,1,2020-11-20_18h29.18.417,test3,2020.2.4,Win32,60,,,z,1.64247,0,157,157,157,1
,,,,m,5.320425,0,158,158,158,1,paints/images/350.jpg,paints/images/156.jpg,159,Beri,1,2020-11-20_18h29.18.417,test3,2020.2.4,Win32,60,,,m,5.320425,0,158,158,158,1
,,,,m,2.67692,0,159,159,159,1,paints/images/31.jpg,paints/images/231.jpg,160,Beri,1,2020-11-20_18h29.18.417,test3,2020.2.4,Win32,60,,,m,2.67692,0,159,159,159,1
,,,,m,0.91768,0,160,160,160,1,paints/images/114.jpg,paints/images/333.jpg,161,Beri,1,2020-11-20_18h29.18.417,test3,2020.2.4,Win32,60,,,m,0.91768,0,160,160,160,1
,,,,m,1.11079,0,161,161,161,1,paints/images/79.jpg,paints/images/408.jpg,162,Beri,1,2020-11-20_18h29.18.417,test3,2020.2.4,Win32,60,,,m,1.11079,0,161,161,161,1
,,,,m,3.427875,0,162,162,162,1,paints/images/338.jpg,paints/images/279.jpg,163,Beri,1,2020-11-20_18h29.18.417,test3,2020.2.4,Win32,60,,,m,3.427875,0,162,162,162,1
,,,,z,0.993445,0,163,163,163,1,paints/images/354.jpg,paints/images/304.jpg,164,Beri,1,2020-11-20_18h29.18.417,test3,2020.2.4,Win32,60,,,z,0.993445,0,163,163,163,1
,,,,z,0.72117,0,164,164,164,1,paints/images/128.jpg,paints/images/276.jpg,165,Beri,1,2020-11-20_18h29.18.417,test3,2020.2.4,Win32,60,,,z,0.72117,0,164,164,164,1
,,,,m,0.658105,0,165,165,165,1,paints/images/35.jpg,paints/images/188.jpg,166,Beri,1,2020-11-20_18h29.18.417,test3,2020.2.4,Win32,60,,,m,0.658105,0,165,165,165,1
,,,,m,0.732515,0,166,166,166,1,paints/images/16.jpg,paints/images/29.jpg,167,Beri,1,2020-11-20_18h29.18.417,test3,2020.2.4,Win32,60,,,m,0.732515,0,166,166,166,1
,,,,m,0.697455,0,167,167,167,1,paints/images/119.jpg,paints/images/251.jpg,168,Beri,1,2020-11-20_18h29.18.417,test3,2020.2.4,Win32,60,,,m,0.697455,0,167,167,167,1
,,,,m,0.90847,0,168,168,168,1,paints/images/207.jpg,paints/images/65.jpg,169,Beri,1,2020-11-20_18h29.18.417,test3,2020.2.4,Win32,60,,,m,0.90847,0,168,168,168,1
,,,,z,0.660455,0,169,169,169,1,paints/images/173.jpg,paints/images/373.jpg,170,Beri,1,2020-11-20_18h29.18.417,test3,2020.2.4,Win32,60,,,z,0.660455,0,169,169,169,1
,,,,z,0.968705,0,170,170,170,1,paints/images/135.jpg,paints/images/196.jpg,171,Beri,1,2020-11-20_18h29.18.417,test3,2020.2.4,Win32,60,,,z,0.968705,0,170,170,170,1
,,,,m,3.529275,0,171,171,171,1,paints/images/55.jpg,paints/images/316.jpg,172,Beri,1,2020-11-20_18h29.18.417,test3,2020.2.4,Win32,60,,,m,3.529275,0,171,171,171,1
,,,,z,0.882585,0,172,172,172,1,paints/images/343.jpg,paints/images/383.jpg,173,Beri,1,2020-11-20_18h29.18.417,test3,2020.2.4,Win32,60,,,z,0.882585,0,172,172,172,1
,,,,z,2.12307,0,173,173,173,1,paints/images/203.jpg,paints/images/186.jpg,174,Beri,1,2020-11-20_18h29.18.417,test3,2020.2.4,Win32,60,,,z,2.12307,0,173,173,173,1
,,,,z,1.17448,0,174,174,174,1,paints/images/123.jpg,paints/images/128.jpg,175,Beri,1,2020-11-20_18h29.18.417,test3,2020.2.4,Win32,60,,,z,1.17448,0,174,174,174,1
,,,,m,0.816025,0,175,175,175,1,paints/images/391.jpg,paints/images/208.jpg,176,Beri,1,2020-11-20_18h29.18.417,test3,2020.2.4,Win32,60,,,m,0.816025,0,175,175,175,1
,,,,z,0.75702,0,176,176,176,1,paints/images/105.jpg,paints/images/313.jpg,177,Beri,1,2020-11-20_18h29.18.417,test3,2020.2.4,Win32,60,,,z,0.75702,0,176,176,176,1
,,,,z,1.127715,0,177,177,177,1,paints/images/184.jpg,paints/images/69.jpg,178,Beri,1,2020-11-20_18h29.18.417,test3,2020.2.4,Win32,60,,,z,1.127715,0,177,177,177,1
,,,,z,0.94389,0,178,178,178,1,paints/images/63.jpg,paints/images/191.jpg,179,Beri,1,2020-11-20_18h29.18.417,test3,2020.2.4,Win32,60,,,z,0.94389,0,178,178,178,1
,,,,m,1.157065,0,179,179,179,1,paints/images/85.jpg,paints/images/390.jpg,180,Beri,1,2020-11-20_18h29.18.417,test3,2020.2.4,Win32,60,,,m,1.157065,0,179,179,179,1
,,,,z,1.089655,0,180,180,180,1,paints/images/179.jpg,paints/images/177.jpg,181,Beri,1,2020-11-20_18h29.18.417,test3,2020.2.4,Win32,60,,,z,1.089655,0,180,180,180,1
,,,,z,0.77349,0,181,181,181,1,paints/images/320.jpg,paints/images/171.jpg,182,Beri,1,2020-11-20_18h29.18.417,test3,2020.2.4,Win32,60,,,z,0.77349,0,181,181,181,1
,,,,z,0.85036,0,182,182,182,1,paints/images/77.jpg,paints/images/406.jpg,183,Beri,1,2020-11-20_18h29.18.417,test3,2020.2.4,Win32,60,,,z,0.85036,0,182,182,182,1
,,,,m,0.93815,0,183,183,183,1,paints/images/66.jpg,paints/images/255.jpg,184,Beri,1,2020-11-20_18h29.18.417,test3,2020.2.4,Win32,60,,,m,0.93815,0,183,183,183,1
,,,,z,0.64763,0,184,184,184,1,paints/images/308.jpg,paints/images/41.jpg,185,Beri,1,2020-11-20_18h29.18.417,test3,2020.2.4,Win32,60,,,z,0.64763,0,184,184,184,1
,,,,m,0.69981,0,185,185,185,1,paints/images/260.jpg,paints/images/297.jpg,186,Beri,1,2020-11-20_18h29.18.417,test3,2020.2.4,Win32,60,,,m,0.69981,0,185,185,185,1
,,,,m,0.677855,0,186,186,186,1,paints/images/126.jpg,paints/images/273.jpg,187,Beri,1,2020-11-20_18h29.18.417,test3,2020.2.4,Win32,60,,,m,0.677855,0,186,186,186,1
,,,,m,1.00287,0,187,187,187,1,paints/images/68.jpg,paints/images/189.jpg,188,Beri,1,2020-11-20_18h29.18.417,test3,2020.2.4,Win32,60,,,m,1.00287,0,187,187,187,1
,,,,z,0.71712,0,188,188,188,1,paints/images/144.jpg,paints/images/280.jpg,189,Beri,1,2020-11-20_18h29.18.417,test3,2020.2.4,Win32,60,,,z,0.71712,0,188,188,188,1
,,,,m,0.87786,0,189,189,189,1,paints/images/24.jpg,paints/images/389.jpg,190,Beri,1,2020-11-20_18h29.18.417,test3,2020.2.4,Win32,60,,,m,0.87786,0,189,189,189,1
,,,,z,0.724715,0,190,190,190,1,paints/images/222.jpg,paints/images/7.jpg,191,Beri,1,2020-11-20_18h29.18.417,test3,2020.2.4,Win32,60,,,z,0.724715,0,190,190,190,1
,,,,z,0.807235,0,191,191,191,1,paints/images/282.jpg,paints/images/278.jpg,192,Beri,1,2020-11-20_18h29.18.417,test3,2020.2.4,Win32,60,,,z,0.807235,0,191,191,191,1
,,,,m,0.853925,0,192,192,192,1,paints/images/190.jpg,paints/images/61.jpg,193,Beri,1,2020-11-20_18h29.18.417,test3,2020.2.4,Win32,60,,,m,0.853925,0,192,192,192,1
,,,,z,1.65832,0,193,193,193,1,paints/images/212.jpg,paints/images/402.jpg,194,Beri,1,2020-11-20_18h29.18.417,test3,2020.2.4,Win32,60,,,z,1.65832,0,193,193,193,1
,,,,z,0.799405,0,194,194,194,1,paints/images/80.jpg,paints/images/410.jpg,195,Beri,1,2020-11-20_18h29.18.417,test3,2020.2.4,Win32,60,,,z,0.799405,0,194,194,194,1
,,,,z,0.838155,0,195,195,195,1,paints/images/252.jpg,paints/images/382.jpg,196,Beri,1,2020-11-20_18h29.18.417,test3,2020.2.4,Win32,60,,,z,0.838155,0,195,195,195,1
,,,,m,0.653345,0,196,196,196,1,paints/images/71.jpg,paints/images/337.jpg,197,Beri,1,2020-11-20_18h29.18.417,test3,2020.2.4,Win32,60,,,m,0.653345,0,196,196,196,1
,,,,m,0.610645,0,197,197,197,1,paints/images/264.jpg,paints/images/118.jpg,198,Beri,1,2020-11-20_18h29.18.417,test3,2020.2.4,Win32,60,,,m,0.610645,0,197,197,197,1
,,,,m,0.825265,0,198,198,198,1,paints/images/180.jpg,paints/images/357.jpg,199,Beri,1,2020-11-20_18h29.18.417,test3,2020.2.4,Win32,60,,,m,0.825265,0,198,198,198,1
,,,,z,1.9559,0,199,199,199,1,paints/images/357.jpg,paints/images/15.jpg,200,Beri,1,2020-11-20_18h29.18.417,test3,2020.2.4,Win32,60,,,z,1.9559,0,199,199,199,1
,,,,z,0.76826,0,200,200,200,1,paints/images/401.jpg,paints/images/220.jpg,201,Beri,1,2020-11-20_18h29.18.417,test3,2020.2.4,Win32,60,,,z,0.76826,0,200,200,200,1
,,,,m,0.746825,0,201,201,201,1,paints/images/95.jpg,paints/images/135.jpg,202,Beri,1,2020-11-20_18h29.18.417,test3,2020.2.4,Win32,60,,,m,0.746825,0,201,201,201,1
,,,,m,0.62062,0,202,202,202,1,paints/images/152.jpg,paints/images/234.jpg,203,Beri,1,2020-11-20_18h29.18.417,test3,2020.2.4,Win32,60,,,m,0.62062,0,202,202,202,1
,,,,m,0.94539,0,203,203,203,1,paints/images/30.jpg,paints/images/88.jpg,204,Beri,1,2020-11-20_18h29.18.417,test3,2020.2.4,Win32,60,,,m,0.94539,0,203,203,203,1
,,,,m,1.642125,0,204,204,204,1,paints/images/194.jpg,paints/images/392.jpg,205,Beri,1,2020-11-20_18h29.18.417,test3,2020.2.4,Win32,60,,,m,1.642125,0,204,204,204,1
,,,,z,2.205515,0,205,205,205,1,paints/images/351.jpg,paints/images/103.jpg,206,Beri,1,2020-11-20_18h29.18.417,test3,2020.2.4,Win32,60,,,z,2.205515,0,205,205,205,1
,,,,z,1.094165,0,206,206,206,1,paints/images/236.jpg,paints/images/369.jpg,207,Beri,1,2020-11-20_18h29.18.417,test3,2020.2.4,Win32,60,,,z,1.094165,0,206,206,206,1
,,,,m,1.06582,0,207,207,207,1,paints/images/219.jpg,paints/images/136.jpg,208,Beri,1,2020-11-20_18h29.18.417,test3,2020.2.4,Win32,60,,,m,1.06582,0,207,207,207,1
,,,,m,0.6639,0,208,208,208,1,paints/images/306.jpg,paints/images/239.jpg,209,Beri,1,2020-11-20_18h29.18.417,test3,2020.2.4,Win32,60,,,m,0.6639,0,208,208,208,1
,,,,z,0.7633,0,209,209,209,1,paints/images/108.jpg,paints/images/259.jpg,210,Beri,1,2020-11-20_18h29.18.417,test3,2020.2.4,Win32,60,,,z,0.7633,0,209,209,209,1
,,,,m,0.659285,0,210,210,210,1,paints/images/210.jpg,paints/images/30.jpg,211,Beri,1,2020-11-20_18h29.18.417,test3,2020.2.4,Win32,60,,,m,0.659285,0,210,210,210,1
