key_resp.keys,key_resp.rt,key_resp_3.keys,key_resp_3.rt,key_resp_2.keys,key_resp_2.rt,trials.thisRepN,trials.thisTrialN,trials.thisN,trials.thisIndex,trials.ran,image_left,image_right,trial_num,participant,session,date,expName,psychopyVersion,OS,frameRate,key_resp_5.keys,key_resp_5.rt,key_resp_4.keys,key_resp_4.rt,trials_2.thisRepN,trials_2.thisTrialN,trials_2.thisN,trials_2.thisIndex,trials_2.ran
space,10.018,space,16.85217,z,5.8099,0,0,0,0,1,paints/images/344.jpg,paints/images/121.jpg,1,GZ,1,2020-11-21_20h48.09.767,test3,2020.2.4,Win32,60,,,,,,,,,
,,,,m,3.299505,0,1,1,1,1,paints/images/369.jpg,paints/images/367.jpg,2,GZ,1,2020-11-21_20h48.09.767,test3,2020.2.4,Win32,60,,,,,,,,,
,,,,m,3.416425,0,2,2,2,1,paints/images/385.jpg,paints/images/253.jpg,3,GZ,1,2020-11-21_20h48.09.767,test3,2020.2.4,Win32,60,,,,,,,,,
,,,,z,3.523065,0,3,3,3,1,paints/images/230.jpg,paints/images/124.jpg,4,GZ,1,2020-11-21_20h48.09.767,test3,2020.2.4,Win32,60,,,,,,,,,
,,,,m,3.69874,0,4,4,4,1,paints/images/284.jpg,paints/images/172.jpg,5,GZ,1,2020-11-21_20h48.09.767,test3,2020.2.4,Win32,60,,,,,,,,,
,,,,m,2.766235,0,5,5,5,1,paints/images/325.jpg,paints/images/5.jpg,6,GZ,1,2020-11-21_20h48.09.767,test3,2020.2.4,Win32,60,,,,,,,,,
,,,,m,5.883905,0,6,6,6,1,paints/images/2.jpg,paints/images/107.jpg,7,GZ,1,2020-11-21_20h48.09.767,test3,2020.2.4,Win32,60,,,,,,,,,
,,,,m,3.783075,0,7,7,7,1,paints/images/330.jpg,paints/images/93.jpg,8,GZ,1,2020-11-21_20h48.09.767,test3,2020.2.4,Win32,60,,,,,,,,,
,,,,m,1.532535,0,8,8,8,1,paints/images/197.jpg,paints/images/20.jpg,9,GZ,1,2020-11-21_20h48.09.767,test3,2020.2.4,Win32,60,,,,,,,,,
,,,,m,2.616635,0,9,9,9,1,paints/images/233.jpg,paints/images/346.jpg,10,GZ,1,2020-11-21_20h48.09.767,test3,2020.2.4,Win32,60,,,,,,,,,
,,,,m,2.766065,0,10,10,10,1,paints/images/289.jpg,paints/images/317.jpg,11,GZ,1,2020-11-21_20h48.09.767,test3,2020.2.4,Win32,60,,,,,,,,,
,,,,m,2.0329,0,11,11,11,1,paints/images/189.jpg,paints/images/230.jpg,12,GZ,1,2020-11-21_20h48.09.767,test3,2020.2.4,Win32,60,,,,,,,,,
,,,,m,2.851835,0,12,12,12,1,paints/images/28.jpg,paints/images/401.jpg,13,GZ,1,2020-11-21_20h48.09.767,test3,2020.2.4,Win32,60,,,,,,,,,
,,,,m,3.26624,0,13,13,13,1,paints/images/183.jpg,paints/images/198.jpg,14,GZ,1,2020-11-21_20h48.09.767,test3,2020.2.4,Win32,60,,,,,,,,,
,,,,z,1.565845,0,14,14,14,1,paints/images/223.jpg,paints/images/249.jpg,15,GZ,1,2020-11-21_20h48.09.767,test3,2020.2.4,Win32,60,,,,,,,,,
,,,,z,2.400065,0,15,15,15,1,paints/images/331.jpg,paints/images/168.jpg,16,GZ,1,2020-11-21_20h48.09.767,test3,2020.2.4,Win32,60,,,,,,,,,
,,,,m,3.332555,0,16,16,16,1,paints/images/129.jpg,paints/images/21.jpg,17,GZ,1,2020-11-21_20h48.09.767,test3,2020.2.4,Win32,60,,,,,,,,,
,,,,m,1.939585,0,17,17,17,1,paints/images/250.jpg,paints/images/290.jpg,18,GZ,1,2020-11-21_20h48.09.767,test3,2020.2.4,Win32,60,,,,,,,,,
,,,,m,1.69899,0,18,18,18,1,paints/images/342.jpg,paints/images/371.jpg,19,GZ,1,2020-11-21_20h48.09.767,test3,2020.2.4,Win32,60,,,,,,,,,
,,,,m,2.901355,0,19,19,19,1,paints/images/312.jpg,paints/images/349.jpg,20,GZ,1,2020-11-21_20h48.09.767,test3,2020.2.4,Win32,60,,,,,,,,,
,,,,z,0.971615,0,20,20,20,1,paints/images/44.jpg,paints/images/23.jpg,21,GZ,1,2020-11-21_20h48.09.767,test3,2020.2.4,Win32,60,,,,,,,,,
,,,,m,2.6182,0,21,21,21,1,paints/images/209.jpg,paints/images/236.jpg,22,GZ,1,2020-11-21_20h48.09.767,test3,2020.2.4,Win32,60,,,,,,,,,
,,,,m,1.665645,0,22,22,22,1,paints/images/314.jpg,paints/images/326.jpg,23,GZ,1,2020-11-21_20h48.09.767,test3,2020.2.4,Win32,60,,,,,,,,,
,,,,z,1.65007,0,23,23,23,1,paints/images/374.jpg,paints/images/397.jpg,24,GZ,1,2020-11-21_20h48.09.767,test3,2020.2.4,Win32,60,,,,,,,,,
,,,,m,4.172635,0,24,24,24,1,paints/images/355.jpg,paints/images/400.jpg,25,GZ,1,2020-11-21_20h48.09.767,test3,2020.2.4,Win32,60,,,,,,,,,
,,,,z,6.082065,0,25,25,25,1,paints/images/346.jpg,paints/images/223.jpg,26,GZ,1,2020-11-21_20h48.09.767,test3,2020.2.4,Win32,60,,,,,,,,,
,,,,z,2.03982,0,26,26,26,1,paints/images/292.jpg,paints/images/122.jpg,27,GZ,1,2020-11-21_20h48.09.767,test3,2020.2.4,Win32,60,,,,,,,,,
,,,,m,2.16462,0,27,27,27,1,paints/images/81.jpg,paints/images/294.jpg,28,GZ,1,2020-11-21_20h48.09.767,test3,2020.2.4,Win32,60,,,,,,,,,
,,,,m,3.81595,0,28,28,28,1,paints/images/359.jpg,paints/images/370.jpg,29,GZ,1,2020-11-21_20h48.09.767,test3,2020.2.4,Win32,60,,,,,,,,,
,,,,m,2.666505,0,29,29,29,1,paints/images/88.jpg,paints/images/119.jpg,30,GZ,1,2020-11-21_20h48.09.767,test3,2020.2.4,Win32,60,,,,,,,,,
,,,,m,1.988265,0,30,30,30,1,paints/images/178.jpg,paints/images/47.jpg,31,GZ,1,2020-11-21_20h48.09.767,test3,2020.2.4,Win32,60,,,,,,,,,
,,,,z,2.35069,0,31,31,31,1,paints/images/139.jpg,paints/images/377.jpg,32,GZ,1,2020-11-21_20h48.09.767,test3,2020.2.4,Win32,60,,,,,,,,,
,,,,m,3.934475,0,32,32,32,1,paints/images/142.jpg,paints/images/379.jpg,33,GZ,1,2020-11-21_20h48.09.767,test3,2020.2.4,Win32,60,,,,,,,,,
,,,,m,2.186325,0,33,33,33,1,paints/images/366.jpg,paints/images/22.jpg,34,GZ,1,2020-11-21_20h48.09.767,test3,2020.2.4,Win32,60,,,,,,,,,
,,,,z,3.251385,0,34,34,34,1,paints/images/277.jpg,paints/images/365.jpg,35,GZ,1,2020-11-21_20h48.09.767,test3,2020.2.4,Win32,60,,,,,,,,,
,,,,m,5.999905,0,35,35,35,1,paints/images/406.jpg,paints/images/388.jpg,36,GZ,1,2020-11-21_20h48.09.767,test3,2020.2.4,Win32,60,,,,,,,,,
,,,,z,1.98304,0,36,36,36,1,paints/images/389.jpg,paints/images/104.jpg,37,GZ,1,2020-11-21_20h48.09.767,test3,2020.2.4,Win32,60,,,,,,,,,
,,,,m,2.23242,0,37,37,37,1,paints/images/20.jpg,paints/images/84.jpg,38,GZ,1,2020-11-21_20h48.09.767,test3,2020.2.4,Win32,60,,,,,,,,,
,,,,m,2.071935,0,38,38,38,1,paints/images/169.jpg,paints/images/163.jpg,39,GZ,1,2020-11-21_20h48.09.767,test3,2020.2.4,Win32,60,,,,,,,,,
,,,,z,3.12016,0,39,39,39,1,paints/images/58.jpg,paints/images/359.jpg,40,GZ,1,2020-11-21_20h48.09.767,test3,2020.2.4,Win32,60,,,,,,,,,
,,,,m,1.816215,0,40,40,40,1,paints/images/376.jpg,paints/images/256.jpg,41,GZ,1,2020-11-21_20h48.09.767,test3,2020.2.4,Win32,60,,,,,,,,,
,,,,z,2.78341,0,41,41,41,1,paints/images/33.jpg,paints/images/261.jpg,42,GZ,1,2020-11-21_20h48.09.767,test3,2020.2.4,Win32,60,,,,,,,,,
,,,,z,2.165495,0,42,42,42,1,paints/images/294.jpg,paints/images/96.jpg,43,GZ,1,2020-11-21_20h48.09.767,test3,2020.2.4,Win32,60,,,,,,,,,
,,,,m,1.86564,0,43,43,43,1,paints/images/269.jpg,paints/images/293.jpg,44,GZ,1,2020-11-21_20h48.09.767,test3,2020.2.4,Win32,60,,,,,,,,,
,,,,m,3.082375,0,44,44,44,1,paints/images/199.jpg,paints/images/284.jpg,45,GZ,1,2020-11-21_20h48.09.767,test3,2020.2.4,Win32,60,,,,,,,,,
,,,,z,3.699395,0,45,45,45,1,paints/images/255.jpg,paints/images/281.jpg,46,GZ,1,2020-11-21_20h48.09.767,test3,2020.2.4,Win32,60,,,,,,,,,
,,,,m,2.42968,0,46,46,46,1,paints/images/382.jpg,paints/images/4.jpg,47,GZ,1,2020-11-21_20h48.09.767,test3,2020.2.4,Win32,60,,,,,,,,,
,,,,m,1.574125,0,47,47,47,1,paints/images/111.jpg,paints/images/83.jpg,48,GZ,1,2020-11-21_20h48.09.767,test3,2020.2.4,Win32,60,,,,,,,,,
,,,,m,1.72956,0,48,48,48,1,paints/images/239.jpg,paints/images/151.jpg,49,GZ,1,2020-11-21_20h48.09.767,test3,2020.2.4,Win32,60,,,,,,,,,
,,,,z,1.334275,0,49,49,49,1,paints/images/84.jpg,paints/images/341.jpg,50,GZ,1,2020-11-21_20h48.09.767,test3,2020.2.4,Win32,60,,,,,,,,,
,,,,m,2.279985,0,50,50,50,1,paints/images/317.jpg,paints/images/159.jpg,51,GZ,1,2020-11-21_20h48.09.767,test3,2020.2.4,Win32,60,,,,,,,,,
,,,,m,1.34349,0,51,51,51,1,paints/images/153.jpg,paints/images/212.jpg,52,GZ,1,2020-11-21_20h48.09.767,test3,2020.2.4,Win32,60,,,,,,,,,
,,,,m,2.976125,0,52,52,52,1,paints/images/5.jpg,paints/images/361.jpg,53,GZ,1,2020-11-21_20h48.09.767,test3,2020.2.4,Win32,60,,,,,,,,,
,,,,z,3.732745,0,53,53,53,1,paints/images/319.jpg,paints/images/178.jpg,54,GZ,1,2020-11-21_20h48.09.767,test3,2020.2.4,Win32,60,,,,,,,,,
,,,,z,3.811545,0,54,54,54,1,paints/images/118.jpg,paints/images/275.jpg,55,GZ,1,2020-11-21_20h48.09.767,test3,2020.2.4,Win32,60,,,,,,,,,
,,,,z,5.432395,0,55,55,55,1,paints/images/213.jpg,paints/images/312.jpg,56,GZ,1,2020-11-21_20h48.09.767,test3,2020.2.4,Win32,60,,,,,,,,,
,,,,m,2.523955,0,56,56,56,1,paints/images/4.jpg,paints/images/131.jpg,57,GZ,1,2020-11-21_20h48.09.767,test3,2020.2.4,Win32,60,,,,,,,,,
,,,,m,2.366475,0,57,57,57,1,paints/images/206.jpg,paints/images/391.jpg,58,GZ,1,2020-11-21_20h48.09.767,test3,2020.2.4,Win32,60,,,,,,,,,
,,,,z,2.284255,0,58,58,58,1,paints/images/349.jpg,paints/images/240.jpg,59,GZ,1,2020-11-21_20h48.09.767,test3,2020.2.4,Win32,60,,,,,,,,,
,,,,m,4.999395,0,59,59,59,1,paints/images/174.jpg,paints/images/197.jpg,60,GZ,1,2020-11-21_20h48.09.767,test3,2020.2.4,Win32,60,,,,,,,,,
,,,,z,5.270595,0,60,60,60,1,paints/images/93.jpg,paints/images/330.jpg,61,GZ,1,2020-11-21_20h48.09.767,test3,2020.2.4,Win32,60,,,,,,,,,
,,,,z,4.453585,0,61,61,61,1,paints/images/262.jpg,paints/images/225.jpg,62,GZ,1,2020-11-21_20h48.09.767,test3,2020.2.4,Win32,60,,,,,,,,,
,,,,m,2.49834,0,62,62,62,1,paints/images/322.jpg,paints/images/267.jpg,63,GZ,1,2020-11-21_20h48.09.767,test3,2020.2.4,Win32,60,,,,,,,,,
,,,,m,2.18796,0,63,63,63,1,paints/images/104.jpg,paints/images/140.jpg,64,GZ,1,2020-11-21_20h48.09.767,test3,2020.2.4,Win32,60,,,,,,,,,
,,,,m,2.00724,0,64,64,64,1,paints/images/400.jpg,paints/images/355.jpg,65,GZ,1,2020-11-21_20h48.09.767,test3,2020.2.4,Win32,60,,,,,,,,,
,,,,z,8.549925,0,65,65,65,1,paints/images/89.jpg,paints/images/380.jpg,66,GZ,1,2020-11-21_20h48.09.767,test3,2020.2.4,Win32,60,,,,,,,,,
,,,,z,2.751435,0,66,66,66,1,paints/images/181.jpg,paints/images/195.jpg,67,GZ,1,2020-11-21_20h48.09.767,test3,2020.2.4,Win32,60,,,,,,,,,
,,,,m,5.36547,0,67,67,67,1,paints/images/130.jpg,paints/images/155.jpg,68,GZ,1,2020-11-21_20h48.09.767,test3,2020.2.4,Win32,60,,,,,,,,,
,,,,m,4.115735,0,68,68,68,1,paints/images/15.jpg,paints/images/55.jpg,69,GZ,1,2020-11-21_20h48.09.767,test3,2020.2.4,Win32,60,,,,,,,,,
,,,,z,1.96651,0,69,69,69,1,paints/images/393.jpg,paints/images/34.jpg,70,GZ,1,2020-11-21_20h48.09.767,test3,2020.2.4,Win32,60,,,,,,,,,
,,,,z,4.73263,0,70,70,70,1,paints/images/192.jpg,paints/images/351.jpg,71,GZ,1,2020-11-21_20h48.09.767,test3,2020.2.4,Win32,60,,,,,,,,,
,,,,m,2.28645,0,71,71,71,1,paints/images/57.jpg,paints/images/363.jpg,72,GZ,1,2020-11-21_20h48.09.767,test3,2020.2.4,Win32,60,,,,,,,,,
,,,,z,5.5816,0,72,72,72,1,paints/images/243.jpg,paints/images/295.jpg,73,GZ,1,2020-11-21_20h48.09.767,test3,2020.2.4,Win32,60,,,,,,,,,
,,,,z,2.26568,0,73,73,73,1,paints/images/196.jpg,paints/images/146.jpg,74,GZ,1,2020-11-21_20h48.09.767,test3,2020.2.4,Win32,60,,,,,,,,,
,,,,m,3.385455,0,74,74,74,1,paints/images/367.jpg,paints/images/332.jpg,75,GZ,1,2020-11-21_20h48.09.767,test3,2020.2.4,Win32,60,,,,,,,,,
,,,,m,2.96585,0,75,75,75,1,paints/images/249.jpg,paints/images/50.jpg,76,GZ,1,2020-11-21_20h48.09.767,test3,2020.2.4,Win32,60,,,,,,,,,
,,,,m,5.607065,0,76,76,76,1,paints/images/100.jpg,paints/images/91.jpg,77,GZ,1,2020-11-21_20h48.09.767,test3,2020.2.4,Win32,60,,,,,,,,,
,,,,m,3.234795,0,77,77,77,1,paints/images/301.jpg,paints/images/154.jpg,78,GZ,1,2020-11-21_20h48.09.767,test3,2020.2.4,Win32,60,,,,,,,,,
,,,,m,3.048525,0,78,78,78,1,paints/images/13.jpg,paints/images/308.jpg,79,GZ,1,2020-11-21_20h48.09.767,test3,2020.2.4,Win32,60,,,,,,,,,
,,,,z,3.16257,0,79,79,79,1,paints/images/11.jpg,paints/images/24.jpg,80,GZ,1,2020-11-21_20h48.09.767,test3,2020.2.4,Win32,60,,,,,,,,,
,,,,z,2.849235,0,80,80,80,1,paints/images/27.jpg,paints/images/114.jpg,81,GZ,1,2020-11-21_20h48.09.767,test3,2020.2.4,Win32,60,,,,,,,,,
,,,,z,1.848585,0,81,81,81,1,paints/images/334.jpg,paints/images/217.jpg,82,GZ,1,2020-11-21_20h48.09.767,test3,2020.2.4,Win32,60,,,,,,,,,
,,,,m,2.148795,0,82,82,82,1,paints/images/340.jpg,paints/images/320.jpg,83,GZ,1,2020-11-21_20h48.09.767,test3,2020.2.4,Win32,60,,,,,,,,,
,,,,z,6.15076,0,83,83,83,1,paints/images/204.jpg,paints/images/52.jpg,84,GZ,1,2020-11-21_20h48.09.767,test3,2020.2.4,Win32,60,,,,,,,,,
,,,,m,5.832685,0,84,84,84,1,paints/images/266.jpg,paints/images/179.jpg,85,GZ,1,2020-11-21_20h48.09.767,test3,2020.2.4,Win32,60,,,,,,,,,
,,,,z,3.668015,0,85,85,85,1,paints/images/309.jpg,paints/images/45.jpg,86,GZ,1,2020-11-21_20h48.09.767,test3,2020.2.4,Win32,60,,,,,,,,,
,,,,m,4.240315,0,86,86,86,1,paints/images/48.jpg,paints/images/352.jpg,87,GZ,1,2020-11-21_20h48.09.767,test3,2020.2.4,Win32,60,,,,,,,,,
,,,,m,5.729975,0,87,87,87,1,paints/images/238.jpg,paints/images/190.jpg,88,GZ,1,2020-11-21_20h48.09.767,test3,2020.2.4,Win32,60,,,,,,,,,
,,,,m,5.566405,0,88,88,88,1,paints/images/216.jpg,paints/images/207.jpg,89,GZ,1,2020-11-21_20h48.09.767,test3,2020.2.4,Win32,60,,,,,,,,,
,,,,z,3.73254,0,89,89,89,1,paints/images/228.jpg,paints/images/315.jpg,90,GZ,1,2020-11-21_20h48.09.767,test3,2020.2.4,Win32,60,,,,,,,,,
,,,,z,2.28736,0,90,90,90,1,paints/images/368.jpg,paints/images/221.jpg,91,GZ,1,2020-11-21_20h48.09.767,test3,2020.2.4,Win32,60,,,,,,,,,
,,,,z,2.516645,0,91,91,91,1,paints/images/402.jpg,paints/images/257.jpg,92,GZ,1,2020-11-21_20h48.09.767,test3,2020.2.4,Win32,60,,,,,,,,,
,,,,z,2.118215,0,92,92,92,1,paints/images/248.jpg,paints/images/296.jpg,93,GZ,1,2020-11-21_20h48.09.767,test3,2020.2.4,Win32,60,,,,,,,,,
,,,,z,2.64824,0,93,93,93,1,paints/images/234.jpg,paints/images/174.jpg,94,GZ,1,2020-11-21_20h48.09.767,test3,2020.2.4,Win32,60,,,,,,,,,
,,,,z,5.65672,0,94,94,94,1,paints/images/149.jpg,paints/images/204.jpg,95,GZ,1,2020-11-21_20h48.09.767,test3,2020.2.4,Win32,60,,,,,,,,,
,,,,z,2.416645,0,95,95,95,1,paints/images/56.jpg,paints/images/117.jpg,96,GZ,1,2020-11-21_20h48.09.767,test3,2020.2.4,Win32,60,,,,,,,,,
,,,,m,6.483205,0,96,96,96,1,paints/images/146.jpg,paints/images/287.jpg,97,GZ,1,2020-11-21_20h48.09.767,test3,2020.2.4,Win32,60,,,,,,,,,
,,,,z,2.868285,0,97,97,97,1,paints/images/221.jpg,paints/images/62.jpg,98,GZ,1,2020-11-21_20h48.09.767,test3,2020.2.4,Win32,60,,,,,,,,,
,,,,m,2.60593,0,98,98,98,1,paints/images/110.jpg,paints/images/321.jpg,99,GZ,1,2020-11-21_20h48.09.767,test3,2020.2.4,Win32,60,,,,,,,,,
,,,,z,2.67251,0,99,99,99,1,paints/images/67.jpg,paints/images/384.jpg,100,GZ,1,2020-11-21_20h48.09.767,test3,2020.2.4,Win32,60,,,,,,,,,
,,,,m,2.07252,0,100,100,100,1,paints/images/356.jpg,paints/images/137.jpg,101,GZ,1,2020-11-21_20h48.09.767,test3,2020.2.4,Win32,60,,,,,,,,,
,,,,m,3.68227,0,101,101,101,1,paints/images/274.jpg,paints/images/232.jpg,102,GZ,1,2020-11-21_20h48.09.767,test3,2020.2.4,Win32,60,,,,,,,,,
,,,,z,3.10381,0,102,102,102,1,paints/images/70.jpg,paints/images/183.jpg,103,GZ,1,2020-11-21_20h48.09.767,test3,2020.2.4,Win32,60,,,,,,,,,
,,,,m,2.33228,0,103,103,103,1,paints/images/10.jpg,paints/images/393.jpg,104,GZ,1,2020-11-21_20h48.09.767,test3,2020.2.4,Win32,60,,,,,,,,,
,,,,m,2.391015,0,104,104,104,1,paints/images/378.jpg,paints/images/181.jpg,105,GZ,1,2020-11-21_20h48.09.767,test3,2020.2.4,Win32,60,,,,,,,,,
,,,,m,1.889145,0,105,105,105,1,paints/images/303.jpg,paints/images/334.jpg,106,GZ,1,2020-11-21_20h48.09.767,test3,2020.2.4,Win32,60,,,,,,,,,
,,,,z,4.132505,0,106,106,106,1,paints/images/328.jpg,paints/images/344.jpg,107,GZ,1,2020-11-21_20h48.09.767,test3,2020.2.4,Win32,60,,,,,,,,,
,,,,m,3.71604,0,107,107,107,1,paints/images/397.jpg,paints/images/318.jpg,108,GZ,1,2020-11-21_20h48.09.767,test3,2020.2.4,Win32,60,,,,,,,,,
,,,,m,1.717705,0,108,108,108,1,paints/images/365.jpg,paints/images/211.jpg,109,GZ,1,2020-11-21_20h48.09.767,test3,2020.2.4,Win32,60,,,,,,,,,
,,,,z,7.58443,0,109,109,109,1,paints/images/23.jpg,paints/images/46.jpg,110,GZ,1,2020-11-21_20h48.09.767,test3,2020.2.4,Win32,60,,,,,,,,,
,,,,m,7.018385,0,110,110,110,1,paints/images/304.jpg,paints/images/11.jpg,111,GZ,1,2020-11-21_20h48.09.767,test3,2020.2.4,Win32,60,,,,,,,,,
,,,,z,1.63909,0,111,111,111,1,paints/images/226.jpg,paints/images/6.jpg,112,GZ,1,2020-11-21_20h48.09.767,test3,2020.2.4,Win32,60,,,,,,,,,
,,,,m,2.01588,0,112,112,112,1,paints/images/170.jpg,paints/images/262.jpg,113,GZ,1,2020-11-21_20h48.09.767,test3,2020.2.4,Win32,60,,,,,,,,,
,,,,m,2.03419,0,113,113,113,1,paints/images/259.jpg,paints/images/343.jpg,114,GZ,1,2020-11-21_20h48.09.767,test3,2020.2.4,Win32,60,,,,,,,,,
,,,,m,2.598295,0,114,114,114,1,paints/images/19.jpg,paints/images/394.jpg,115,GZ,1,2020-11-21_20h48.09.767,test3,2020.2.4,Win32,60,,,,,,,,,
,,,,m,3.132405,0,115,115,115,1,paints/images/215.jpg,paints/images/19.jpg,116,GZ,1,2020-11-21_20h48.09.767,test3,2020.2.4,Win32,60,,,,,,,,,
,,,,z,4.78194,0,116,116,116,1,paints/images/52.jpg,paints/images/360.jpg,117,GZ,1,2020-11-21_20h48.09.767,test3,2020.2.4,Win32,60,,,,,,,,,
,,,,m,4.93268,0,117,117,117,1,paints/images/99.jpg,paints/images/328.jpg,118,GZ,1,2020-11-21_20h48.09.767,test3,2020.2.4,Win32,60,,,,,,,,,
,,,,m,3.72375,0,118,118,118,1,paints/images/150.jpg,paints/images/164.jpg,119,GZ,1,2020-11-21_20h48.09.767,test3,2020.2.4,Win32,60,,,,,,,,,
,,,,z,6.47356,0,119,119,119,1,paints/images/172.jpg,paints/images/213.jpg,120,GZ,1,2020-11-21_20h48.09.767,test3,2020.2.4,Win32,60,,,,,,,,,
,,,,z,2.332455,0,120,120,120,1,paints/images/50.jpg,paints/images/101.jpg,121,GZ,1,2020-11-21_20h48.09.767,test3,2020.2.4,Win32,60,,,,,,,,,
,,,,m,4.20614,0,121,121,121,1,paints/images/358.jpg,paints/images/354.jpg,122,GZ,1,2020-11-21_20h48.09.767,test3,2020.2.4,Win32,60,,,,,,,,,
,,,,m,1.47355,0,122,122,122,1,paints/images/257.jpg,paints/images/265.jpg,123,GZ,1,2020-11-21_20h48.09.767,test3,2020.2.4,Win32,60,,,,,,,,,
,,,,m,4.051625,0,123,123,123,1,paints/images/91.jpg,paints/images/342.jpg,124,GZ,1,2020-11-21_20h48.09.767,test3,2020.2.4,Win32,60,,,,,,,,,
,,,,m,7.978215,0,124,124,124,1,paints/images/168.jpg,paints/images/132.jpg,125,GZ,1,2020-11-21_20h48.09.767,test3,2020.2.4,Win32,60,,,,,,,,,
,,,,z,2.09861,0,125,125,125,1,paints/images/280.jpg,paints/images/98.jpg,126,GZ,1,2020-11-21_20h48.09.767,test3,2020.2.4,Win32,60,,,,,,,,,
,,,,z,2.014325,0,126,126,126,1,paints/images/261.jpg,paints/images/40.jpg,127,GZ,1,2020-11-21_20h48.09.767,test3,2020.2.4,Win32,60,,,,,,,,,
,,,,m,1.64829,0,127,127,127,1,paints/images/333.jpg,paints/images/66.jpg,128,GZ,1,2020-11-21_20h48.09.767,test3,2020.2.4,Win32,60,,,,,,,,,
,,,,m,2.73106,0,128,128,128,1,paints/images/96.jpg,paints/images/82.jpg,129,GZ,1,2020-11-21_20h48.09.767,test3,2020.2.4,Win32,60,,,,,,,,,
,,,,m,3.14269,0,129,129,129,1,paints/images/32.jpg,paints/images/325.jpg,130,GZ,1,2020-11-21_20h48.09.767,test3,2020.2.4,Win32,60,,,,,,,,,
,,,,z,4.416955,0,130,130,130,1,paints/images/268.jpg,paints/images/167.jpg,131,GZ,1,2020-11-21_20h48.09.767,test3,2020.2.4,Win32,60,,,,,,,,,
,,,,m,2.182835,0,131,131,131,1,paints/images/162.jpg,paints/images/25.jpg,132,GZ,1,2020-11-21_20h48.09.767,test3,2020.2.4,Win32,60,,,,,,,,,
,,,,m,2.548775,0,132,132,132,1,paints/images/53.jpg,paints/images/305.jpg,133,GZ,1,2020-11-21_20h48.09.767,test3,2020.2.4,Win32,60,,,,,,,,,
,,,,m,4.765435,0,133,133,133,1,paints/images/263.jpg,paints/images/209.jpg,134,GZ,1,2020-11-21_20h48.09.767,test3,2020.2.4,Win32,60,,,,,,,,,
,,,,m,2.486505,0,134,134,134,1,paints/images/92.jpg,paints/images/364.jpg,135,GZ,1,2020-11-21_20h48.09.767,test3,2020.2.4,Win32,60,,,,,,,,,
,,,,m,3.021395,0,135,135,135,1,paints/images/61.jpg,paints/images/291.jpg,136,GZ,1,2020-11-21_20h48.09.767,test3,2020.2.4,Win32,60,,,,,,,,,
,,,,z,4.148065,0,136,136,136,1,paints/images/293.jpg,paints/images/283.jpg,137,GZ,1,2020-11-21_20h48.09.767,test3,2020.2.4,Win32,60,,,,,,,,,
,,,,z,1.833905,0,137,137,137,1,paints/images/229.jpg,paints/images/173.jpg,138,GZ,1,2020-11-21_20h48.09.767,test3,2020.2.4,Win32,60,,,,,,,,,
,,,,z,1.76811,0,138,138,138,1,paints/images/41.jpg,paints/images/133.jpg,139,GZ,1,2020-11-21_20h48.09.767,test3,2020.2.4,Win32,60,,,,,,,,,
,,,,z,4.33305,0,139,139,139,1,paints/images/182.jpg,paints/images/348.jpg,140,GZ,1,2020-11-21_20h48.09.767,test3,2020.2.4,Win32,60,,,,,,,,,
,,,,z,2.765555,0,140,140,140,1,paints/images/379.jpg,paints/images/228.jpg,141,GZ,1,2020-11-21_20h48.09.767,test3,2020.2.4,Win32,60,,,,,,,,,
,,,,z,3.131625,0,141,141,141,1,paints/images/188.jpg,paints/images/13.jpg,142,GZ,1,2020-11-21_20h48.09.767,test3,2020.2.4,Win32,60,,,,,,,,,
,,,,m,1.1195,0,142,142,142,1,paints/images/40.jpg,paints/images/329.jpg,143,GZ,1,2020-11-21_20h48.09.767,test3,2020.2.4,Win32,60,,,,,,,,,
,,,,z,4.749725,0,143,143,143,1,paints/images/323.jpg,paints/images/165.jpg,144,GZ,1,2020-11-21_20h48.09.767,test3,2020.2.4,Win32,60,,,,,,,,,
,,,,z,5.097685,0,144,144,144,1,paints/images/78.jpg,paints/images/407.jpg,145,GZ,1,2020-11-21_20h48.09.767,test3,2020.2.4,Win32,60,,,,,,,,,
,,,,z,7.02759,0,145,145,145,1,paints/images/242.jpg,paints/images/75.jpg,146,GZ,1,2020-11-21_20h48.09.767,test3,2020.2.4,Win32,60,,,,,,,,,
,,,,m,1.56421,0,146,146,146,1,paints/images/62.jpg,paints/images/187.jpg,147,GZ,1,2020-11-21_20h48.09.767,test3,2020.2.4,Win32,60,,,,,,,,,
,,,,z,2.30044,0,147,147,147,1,paints/images/131.jpg,paints/images/285.jpg,148,GZ,1,2020-11-21_20h48.09.767,test3,2020.2.4,Win32,60,,,,,,,,,
,,,,m,3.248415,0,148,148,148,1,paints/images/241.jpg,paints/images/97.jpg,149,GZ,1,2020-11-21_20h48.09.767,test3,2020.2.4,Win32,60,,,,,,,,,
,,,,m,1.37553,0,149,149,149,1,paints/images/132.jpg,paints/images/289.jpg,150,GZ,1,2020-11-21_20h48.09.767,test3,2020.2.4,Win32,60,,,,,,,,,
,,,,m,1.424725,0,150,150,150,1,paints/images/185.jpg,paints/images/54.jpg,151,GZ,1,2020-11-21_20h48.09.767,test3,2020.2.4,Win32,60,,,,,,,,,
,,,,z,1.91901,0,151,151,151,1,paints/images/272.jpg,paints/images/51.jpg,152,GZ,1,2020-11-21_20h48.09.767,test3,2020.2.4,Win32,60,,,,,,,,,
,,,,z,8.37358,0,152,152,152,1,paints/images/403.jpg,paints/images/71.jpg,153,GZ,1,2020-11-21_20h48.09.767,test3,2020.2.4,Win32,60,,,,,,,,,
,,,,z,6.38253,0,153,153,153,1,paints/images/202.jpg,paints/images/219.jpg,154,GZ,1,2020-11-21_20h48.09.767,test3,2020.2.4,Win32,60,,,,,,,,,
,,,,m,2.151305,0,154,154,154,1,paints/images/34.jpg,paints/images/271.jpg,155,GZ,1,2020-11-21_20h48.09.767,test3,2020.2.4,Win32,60,,,,,,,,,
,,,,m,2.021605,0,155,155,155,1,paints/images/296.jpg,paints/images/90.jpg,156,GZ,1,2020-11-21_20h48.09.767,test3,2020.2.4,Win32,60,,,,,,,,,
,,,,m,3.535055,0,156,156,156,1,paints/images/25.jpg,paints/images/338.jpg,157,GZ,1,2020-11-21_20h48.09.767,test3,2020.2.4,Win32,60,,,,,,,,,
,,,,z,2.481385,0,157,157,157,1,paints/images/396.jpg,paints/images/78.jpg,158,GZ,1,2020-11-21_20h48.09.767,test3,2020.2.4,Win32,60,,,,,,,,,
,,,,z,1.93248,0,158,158,158,1,paints/images/72.jpg,paints/images/111.jpg,159,GZ,1,2020-11-21_20h48.09.767,test3,2020.2.4,Win32,60,,,,,,,,,
,,,,z,2.488805,0,159,159,159,1,paints/images/164.jpg,paints/images/16.jpg,160,GZ,1,2020-11-21_20h48.09.767,test3,2020.2.4,Win32,60,,,,,,,,,
,,,,m,2.20026,0,160,160,160,1,paints/images/387.jpg,paints/images/244.jpg,161,GZ,1,2020-11-21_20h48.09.767,test3,2020.2.4,Win32,60,,,,,,,,,
,,,,z,5.6823,0,161,161,161,1,paints/images/64.jpg,paints/images/260.jpg,162,GZ,1,2020-11-21_20h48.09.767,test3,2020.2.4,Win32,60,,,,,,,,,
,,,,z,2.63309,0,162,162,162,1,paints/images/160.jpg,paints/images/63.jpg,163,GZ,1,2020-11-21_20h48.09.767,test3,2020.2.4,Win32,60,,,,,,,,,
,,,,z,2.48241,0,163,163,163,1,paints/images/3.jpg,paints/images/282.jpg,164,GZ,1,2020-11-21_20h48.09.767,test3,2020.2.4,Win32,60,,,,,,,,,
,,,,z,2.533075,0,164,164,164,1,paints/images/307.jpg,paints/images/152.jpg,165,GZ,1,2020-11-21_20h48.09.767,test3,2020.2.4,Win32,60,,,,,,,,,
,,,,m,0.856835,0,165,165,165,1,paints/images/311.jpg,paints/images/123.jpg,166,GZ,1,2020-11-21_20h48.09.767,test3,2020.2.4,Win32,60,,,,,,,,,
,,,,z,3.14928,0,166,166,166,1,paints/images/143.jpg,paints/images/286.jpg,167,GZ,1,2020-11-21_20h48.09.767,test3,2020.2.4,Win32,60,,,,,,,,,
,,,,z,3.172455,0,167,167,167,1,paints/images/97.jpg,paints/images/216.jpg,168,GZ,1,2020-11-21_20h48.09.767,test3,2020.2.4,Win32,60,,,,,,,,,
,,,,z,1.931765,0,168,168,168,1,paints/images/395.jpg,paints/images/170.jpg,169,GZ,1,2020-11-21_20h48.09.767,test3,2020.2.4,Win32,60,,,,,,,,,
,,,,z,1.348185,0,169,169,169,1,paints/images/151.jpg,paints/images/26.jpg,170,GZ,1,2020-11-21_20h48.09.767,test3,2020.2.4,Win32,60,,,,,,,,,
,,,,z,1.31698,0,170,170,170,1,paints/images/51.jpg,paints/images/32.jpg,171,GZ,1,2020-11-21_20h48.09.767,test3,2020.2.4,Win32,60,,,,,,,,,
,,,,m,3.715375,0,171,171,171,1,paints/images/305.jpg,paints/images/176.jpg,172,GZ,1,2020-11-21_20h48.09.767,test3,2020.2.4,Win32,60,,,,,,,,,
,,,,m,2.38249,0,172,172,172,1,paints/images/137.jpg,paints/images/48.jpg,173,GZ,1,2020-11-21_20h48.09.767,test3,2020.2.4,Win32,60,,,,,,,,,
,,,,m,1.807255,0,173,173,173,1,paints/images/65.jpg,paints/images/243.jpg,174,GZ,1,2020-11-21_20h48.09.767,test3,2020.2.4,Win32,60,,,,,,,,,
,,,,m,3.383525,0,174,174,174,1,paints/images/115.jpg,paints/images/210.jpg,175,GZ,1,2020-11-21_20h48.09.767,test3,2020.2.4,Win32,60,,,,,,,,,
,,,,z,3.84927,0,175,175,175,1,paints/images/310.jpg,paints/images/58.jpg,176,GZ,1,2020-11-21_20h48.09.767,test3,2020.2.4,Win32,60,,,,,,,,,
,,,,m,3.09972,0,176,176,176,1,paints/images/1.jpg,paints/images/112.jpg,177,GZ,1,2020-11-21_20h48.09.767,test3,2020.2.4,Win32,60,,,,,,,,,
,,,,m,4.21679,0,177,177,177,1,paints/images/125.jpg,paints/images/17.jpg,178,GZ,1,2020-11-21_20h48.09.767,test3,2020.2.4,Win32,60,,,,,,,,,
,,,,m,4.083115,0,178,178,178,1,paints/images/279.jpg,paints/images/166.jpg,179,GZ,1,2020-11-21_20h48.09.767,test3,2020.2.4,Win32,60,,,,,,,,,
,,,,m,5.965205,0,179,179,179,1,paints/images/316.jpg,paints/images/306.jpg,180,GZ,1,2020-11-21_20h48.09.767,test3,2020.2.4,Win32,60,,,,,,,,,
,,,,m,1.466185,0,180,180,180,1,paints/images/22.jpg,paints/images/214.jpg,181,GZ,1,2020-11-21_20h48.09.767,test3,2020.2.4,Win32,60,,,,,,,,,
,,,,z,3.46618,0,181,181,181,1,paints/images/54.jpg,paints/images/235.jpg,182,GZ,1,2020-11-21_20h48.09.767,test3,2020.2.4,Win32,60,,,,,,,,,
,,,,m,4.16568,0,182,182,182,1,paints/images/225.jpg,paints/images/160.jpg,183,GZ,1,2020-11-21_20h48.09.767,test3,2020.2.4,Win32,60,,,,,,,,,
,,,,z,5.735185,0,183,183,183,1,paints/images/339.jpg,paints/images/59.jpg,184,GZ,1,2020-11-21_20h48.09.767,test3,2020.2.4,Win32,60,,,,,,,,,
,,,,z,2.403375,0,184,184,184,1,paints/images/409.jpg,paints/images/180.jpg,185,GZ,1,2020-11-21_20h48.09.767,test3,2020.2.4,Win32,60,,,,,,,,,
,,,,m,1.931875,0,185,185,185,1,paints/images/145.jpg,paints/images/115.jpg,186,GZ,1,2020-11-21_20h48.09.767,test3,2020.2.4,Win32,60,,,,,,,,,
,,,,m,2.572785,0,186,186,186,1,paints/images/147.jpg,paints/images/37.jpg,187,GZ,1,2020-11-21_20h48.09.767,test3,2020.2.4,Win32,60,,,,,,,,,
,,,,z,2.431865,0,187,187,187,1,paints/images/288.jpg,paints/images/64.jpg,188,GZ,1,2020-11-21_20h48.09.767,test3,2020.2.4,Win32,60,,,,,,,,,
,,,,z,3.819045,0,188,188,188,1,paints/images/235.jpg,paints/images/201.jpg,189,GZ,1,2020-11-21_20h48.09.767,test3,2020.2.4,Win32,60,,,,,,,,,
,,,,z,2.89893,0,189,189,189,1,paints/images/313.jpg,paints/images/2.jpg,190,GZ,1,2020-11-21_20h48.09.767,test3,2020.2.4,Win32,60,,,,,,,,,
,,,,z,4.43255,0,190,190,190,1,paints/images/329.jpg,paints/images/38.jpg,191,GZ,1,2020-11-21_20h48.09.767,test3,2020.2.4,Win32,60,,,,,,,,,
,,,,z,1.78466,0,191,191,191,1,paints/images/9.jpg,paints/images/241.jpg,192,GZ,1,2020-11-21_20h48.09.767,test3,2020.2.4,Win32,60,,,,,,,,,
,,,,z,2.48985,0,192,192,192,1,paints/images/364.jpg,paints/images/44.jpg,193,GZ,1,2020-11-21_20h48.09.767,test3,2020.2.4,Win32,60,,,,,,,,,
,,,,m,3.91638,0,193,193,193,1,paints/images/14.jpg,paints/images/109.jpg,194,GZ,1,2020-11-21_20h48.09.767,test3,2020.2.4,Win32,60,,,,,,,,,
,,,,z,1.765125,0,194,194,194,1,paints/images/0.jpg,paints/images/14.jpg,195,GZ,1,2020-11-21_20h48.09.767,test3,2020.2.4,Win32,60,,,,,,,,,
,,,,z,4.949595,0,195,195,195,1,paints/images/398.jpg,paints/images/247.jpg,196,GZ,1,2020-11-21_20h48.09.767,test3,2020.2.4,Win32,60,,,,,,,,,
,,,,m,2.800555,0,196,196,196,1,paints/images/377.jpg,paints/images/237.jpg,197,GZ,1,2020-11-21_20h48.09.767,test3,2020.2.4,Win32,60,,,,,,,,,
,,,,m,2.41628,0,197,197,197,1,paints/images/246.jpg,paints/images/184.jpg,198,GZ,1,2020-11-21_20h48.09.767,test3,2020.2.4,Win32,60,,,,,,,,,
,,,,z,5.555635,0,198,198,198,1,paints/images/299.jpg,paints/images/301.jpg,199,GZ,1,2020-11-21_20h48.09.767,test3,2020.2.4,Win32,60,,,,,,,,,
,,,,z,2.315895,0,199,199,199,1,paints/images/116.jpg,paints/images/148.jpg,200,GZ,1,2020-11-21_20h48.09.767,test3,2020.2.4,Win32,60,,,,,,,,,
,,,,z,2.264365,0,0,0,0,1,paints/images/267.jpg,paints/images/336.jpg,1,GZ,1,2020-11-21_20h48.09.767,test3,2020.2.4,Win32,60,space,48.655685,z,2.264365,0,0,0,0,1
,,,,z,1.35211,0,1,1,1,1,paints/images/6.jpg,paints/images/182.jpg,2,GZ,1,2020-11-21_20h48.09.767,test3,2020.2.4,Win32,60,,,z,1.35211,0,1,1,1,1
,,,,m,1.54485,0,2,2,2,1,paints/images/348.jpg,paints/images/105.jpg,3,GZ,1,2020-11-21_20h48.09.767,test3,2020.2.4,Win32,60,,,m,1.54485,0,2,2,2,1
,,,,z,1.547585,0,3,3,3,1,paints/images/404.jpg,paints/images/372.jpg,4,GZ,1,2020-11-21_20h48.09.767,test3,2020.2.4,Win32,60,,,z,1.547585,0,3,3,3,1
,,,,z,1.716645,0,4,4,4,1,paints/images/324.jpg,paints/images/134.jpg,5,GZ,1,2020-11-21_20h48.09.767,test3,2020.2.4,Win32,60,,,z,1.716645,0,4,4,4,1
,,,,m,4.68272,0,5,5,5,1,paints/images/278.jpg,paints/images/269.jpg,6,GZ,1,2020-11-21_20h48.09.767,test3,2020.2.4,Win32,60,,,m,4.68272,0,5,5,5,1
,,,,z,4.382455,0,6,6,6,1,paints/images/237.jpg,paints/images/375.jpg,7,GZ,1,2020-11-21_20h48.09.767,test3,2020.2.4,Win32,60,,,z,4.382455,0,6,6,6,1
,,,,z,3.854995,0,7,7,7,1,paints/images/109.jpg,paints/images/224.jpg,8,GZ,1,2020-11-21_20h48.09.767,test3,2020.2.4,Win32,60,,,z,3.854995,0,7,7,7,1
,,,,m,6.368655,0,8,8,8,1,paints/images/318.jpg,paints/images/127.jpg,9,GZ,1,2020-11-21_20h48.09.767,test3,2020.2.4,Win32,60,,,m,6.368655,0,8,8,8,1
,,,,z,2.315865,0,9,9,9,1,paints/images/120.jpg,paints/images/254.jpg,10,GZ,1,2020-11-21_20h48.09.767,test3,2020.2.4,Win32,60,,,z,2.315865,0,9,9,9,1
,,,,m,2.017875,0,10,10,10,1,paints/images/86.jpg,paints/images/67.jpg,11,GZ,1,2020-11-21_20h48.09.767,test3,2020.2.4,Win32,60,,,m,2.017875,0,10,10,10,1
,,,,z,2.52114,0,11,11,11,1,paints/images/302.jpg,paints/images/245.jpg,12,GZ,1,2020-11-21_20h48.09.767,test3,2020.2.4,Win32,60,,,z,2.52114,0,11,11,11,1
,,,,m,2.65198,0,12,12,12,1,paints/images/94.jpg,paints/images/242.jpg,13,GZ,1,2020-11-21_20h48.09.767,test3,2020.2.4,Win32,60,,,m,2.65198,0,12,12,12,1
,,,,m,3.51585,0,13,13,13,1,paints/images/295.jpg,paints/images/72.jpg,14,GZ,1,2020-11-21_20h48.09.767,test3,2020.2.4,Win32,60,,,m,3.51585,0,13,13,13,1
,,,,z,5.60649,0,14,14,14,1,paints/images/227.jpg,paints/images/175.jpg,15,GZ,1,2020-11-21_20h48.09.767,test3,2020.2.4,Win32,60,,,z,5.60649,0,14,14,14,1
,,,,m,3.663235,0,15,15,15,1,paints/images/26.jpg,paints/images/203.jpg,16,GZ,1,2020-11-21_20h48.09.767,test3,2020.2.4,Win32,60,,,m,3.663235,0,15,15,15,1
,,,,z,1.847265,0,16,16,16,1,paints/images/45.jpg,paints/images/272.jpg,17,GZ,1,2020-11-21_20h48.09.767,test3,2020.2.4,Win32,60,,,z,1.847265,0,16,16,16,1
,,,,z,2.54301,0,17,17,17,1,paints/images/410.jpg,paints/images/185.jpg,18,GZ,1,2020-11-21_20h48.09.767,test3,2020.2.4,Win32,60,,,z,2.54301,0,17,17,17,1
,,,,z,4.233095,0,18,18,18,1,paints/images/380.jpg,paints/images/0.jpg,19,GZ,1,2020-11-21_20h48.09.767,test3,2020.2.4,Win32,60,,,z,4.233095,0,18,18,18,1
,,,,m,4.353645,0,19,19,19,1,paints/images/370.jpg,paints/images/106.jpg,20,GZ,1,2020-11-21_20h48.09.767,test3,2020.2.4,Win32,60,,,m,4.353645,0,19,19,19,1
,,,,m,1.93243,0,20,20,20,1,paints/images/102.jpg,paints/images/309.jpg,21,GZ,1,2020-11-21_20h48.09.767,test3,2020.2.4,Win32,60,,,m,1.93243,0,20,20,20,1
,,,,m,2.383385,0,21,21,21,1,paints/images/167.jpg,paints/images/299.jpg,22,GZ,1,2020-11-21_20h48.09.767,test3,2020.2.4,Win32,60,,,m,2.383385,0,21,21,21,1
,,,,m,4.28843,0,22,22,22,1,paints/images/290.jpg,paints/images/192.jpg,23,GZ,1,2020-11-21_20h48.09.767,test3,2020.2.4,Win32,60,,,m,4.28843,0,22,22,22,1
,,,,m,2.18266,0,23,23,23,1,paints/images/82.jpg,paints/images/353.jpg,24,GZ,1,2020-11-21_20h48.09.767,test3,2020.2.4,Win32,60,,,m,2.18266,0,23,23,23,1
,,,,m,2.78244,0,24,24,24,1,paints/images/75.jpg,paints/images/404.jpg,25,GZ,1,2020-11-21_20h48.09.767,test3,2020.2.4,Win32,60,,,m,2.78244,0,24,24,24,1
,,,,z,2.765745,0,25,25,25,1,paints/images/117.jpg,paints/images/100.jpg,26,GZ,1,2020-11-21_20h48.09.767,test3,2020.2.4,Win32,60,,,z,2.765745,0,25,25,25,1
,,,,z,2.71681,0,26,26,26,1,paints/images/200.jpg,paints/images/378.jpg,27,GZ,1,2020-11-21_20h48.09.767,test3,2020.2.4,Win32,60,,,z,2.71681,0,26,26,26,1
,,,,z,1.654835,0,27,27,27,1,paints/images/371.jpg,paints/images/57.jpg,28,GZ,1,2020-11-21_20h48.09.767,test3,2020.2.4,Win32,60,,,z,1.654835,0,27,27,27,1
,,,,m,1.74926,0,28,28,28,1,paints/images/87.jpg,paints/images/302.jpg,29,GZ,1,2020-11-21_20h48.09.767,test3,2020.2.4,Win32,60,,,m,1.74926,0,28,28,28,1
,,,,m,3.365705,0,29,29,29,1,paints/images/208.jpg,paints/images/39.jpg,30,GZ,1,2020-11-21_20h48.09.767,test3,2020.2.4,Win32,60,,,m,3.365705,0,29,29,29,1
,,,,z,5.40195,0,30,30,30,1,paints/images/198.jpg,paints/images/200.jpg,31,GZ,1,2020-11-21_20h48.09.767,test3,2020.2.4,Win32,60,,,z,5.40195,0,30,30,30,1
,,,,z,2.51618,0,31,31,31,1,paints/images/43.jpg,paints/images/42.jpg,32,GZ,1,2020-11-21_20h48.09.767,test3,2020.2.4,Win32,60,,,z,2.51618,0,31,31,31,1
,,,,m,2.18263,0,32,32,32,1,paints/images/286.jpg,paints/images/376.jpg,33,GZ,1,2020-11-21_20h48.09.767,test3,2020.2.4,Win32,60,,,m,2.18263,0,32,32,32,1
,,,,z,2.839215,0,33,33,33,1,paints/images/275.jpg,paints/images/76.jpg,34,GZ,1,2020-11-21_20h48.09.767,test3,2020.2.4,Win32,60,,,z,2.839215,0,33,33,33,1
,,,,m,2.43271,0,34,34,34,1,paints/images/138.jpg,paints/images/129.jpg,35,GZ,1,2020-11-21_20h48.09.767,test3,2020.2.4,Win32,60,,,m,2.43271,0,34,34,34,1
,,,,z,2.835575,0,35,35,35,1,paints/images/386.jpg,paints/images/366.jpg,36,GZ,1,2020-11-21_20h48.09.767,test3,2020.2.4,Win32,60,,,z,2.835575,0,35,35,35,1
,,,,m,1.96926,0,36,36,36,1,paints/images/232.jpg,paints/images/215.jpg,37,GZ,1,2020-11-21_20h48.09.767,test3,2020.2.4,Win32,60,,,m,1.96926,0,36,36,36,1
,,,,m,4.28193,0,37,37,37,1,paints/images/122.jpg,paints/images/199.jpg,38,GZ,1,2020-11-21_20h48.09.767,test3,2020.2.4,Win32,60,,,m,4.28193,0,37,37,37,1
,,,,z,4.48239,0,38,38,38,1,paints/images/388.jpg,paints/images/169.jpg,39,GZ,1,2020-11-21_20h48.09.767,test3,2020.2.4,Win32,60,,,z,4.48239,0,38,38,38,1
,,,,z,1.91554,0,39,39,39,1,paints/images/399.jpg,paints/images/229.jpg,40,GZ,1,2020-11-21_20h48.09.767,test3,2020.2.4,Win32,60,,,z,1.91554,0,39,39,39,1
,,,,m,3.685915,0,40,40,40,1,paints/images/300.jpg,paints/images/1.jpg,41,GZ,1,2020-11-21_20h48.09.767,test3,2020.2.4,Win32,60,,,m,3.685915,0,40,40,40,1
,,,,m,3.28984,0,41,41,41,1,paints/images/195.jpg,paints/images/399.jpg,42,GZ,1,2020-11-21_20h48.09.767,test3,2020.2.4,Win32,60,,,m,3.28984,0,41,41,41,1
,,,,m,2.733365,0,42,42,42,1,paints/images/281.jpg,paints/images/277.jpg,43,GZ,1,2020-11-21_20h48.09.767,test3,2020.2.4,Win32,60,,,m,2.733365,0,42,42,42,1
,,,,z,3.23274,0,43,43,43,1,paints/images/103.jpg,paints/images/288.jpg,44,GZ,1,2020-11-21_20h48.09.767,test3,2020.2.4,Win32,60,,,z,3.23274,0,43,43,43,1
,,,,m,2.98784,0,44,44,44,1,paints/images/297.jpg,paints/images/222.jpg,45,GZ,1,2020-11-21_20h48.09.767,test3,2020.2.4,Win32,60,,,m,2.98784,0,44,44,44,1
,,,,m,3.418965,0,45,45,45,1,paints/images/394.jpg,paints/images/258.jpg,46,GZ,1,2020-11-21_20h48.09.767,test3,2020.2.4,Win32,60,,,m,3.418965,0,45,45,45,1
,,,,z,3.523195,0,46,46,46,1,paints/images/73.jpg,paints/images/49.jpg,47,GZ,1,2020-11-21_20h48.09.767,test3,2020.2.4,Win32,60,,,z,3.523195,0,46,46,46,1
,,,,m,2.548625,0,47,47,47,1,paints/images/112.jpg,paints/images/80.jpg,48,GZ,1,2020-11-21_20h48.09.767,test3,2020.2.4,Win32,60,,,m,2.548625,0,47,47,47,1
,,,,m,2.165545,0,48,48,48,1,paints/images/245.jpg,paints/images/358.jpg,49,GZ,1,2020-11-21_20h48.09.767,test3,2020.2.4,Win32,60,,,m,2.165545,0,48,48,48,1
,,,,z,3.220955,0,49,49,49,1,paints/images/347.jpg,paints/images/143.jpg,50,GZ,1,2020-11-21_20h48.09.767,test3,2020.2.4,Win32,60,,,z,3.220955,0,49,49,49,1
,,,,z,1.41524,0,50,50,50,1,paints/images/352.jpg,paints/images/145.jpg,51,GZ,1,2020-11-21_20h48.09.767,test3,2020.2.4,Win32,60,,,z,1.41524,0,50,50,50,1
,,,,z,3.937955,0,51,51,51,1,paints/images/69.jpg,paints/images/162.jpg,52,GZ,1,2020-11-21_20h48.09.767,test3,2020.2.4,Win32,60,,,z,3.937955,0,51,51,51,1
,,,,m,1.532995,0,52,52,52,1,paints/images/381.jpg,paints/images/202.jpg,53,GZ,1,2020-11-21_20h48.09.767,test3,2020.2.4,Win32,60,,,m,1.532995,0,52,52,52,1
,,,,z,2.06753,0,53,53,53,1,paints/images/361.jpg,paints/images/340.jpg,54,GZ,1,2020-11-21_20h48.09.767,test3,2020.2.4,Win32,60,,,z,2.06753,0,53,53,53,1
,,,,m,1.750505,0,54,54,54,1,paints/images/217.jpg,paints/images/9.jpg,55,GZ,1,2020-11-21_20h48.09.767,test3,2020.2.4,Win32,60,,,m,1.750505,0,54,54,54,1
,,,,m,1.39904,0,55,55,55,1,paints/images/8.jpg,paints/images/409.jpg,56,GZ,1,2020-11-21_20h48.09.767,test3,2020.2.4,Win32,60,,,m,1.39904,0,55,55,55,1
,,,,z,4.90763,0,56,56,56,1,paints/images/59.jpg,paints/images/33.jpg,57,GZ,1,2020-11-21_20h48.09.767,test3,2020.2.4,Win32,60,,,z,4.90763,0,56,56,56,1
,,,,z,2.335995,0,57,57,57,1,paints/images/21.jpg,paints/images/311.jpg,58,GZ,1,2020-11-21_20h48.09.767,test3,2020.2.4,Win32,60,,,z,2.335995,0,57,57,57,1
,,,,m,3.1185,0,58,58,58,1,paints/images/408.jpg,paints/images/31.jpg,59,GZ,1,2020-11-21_20h48.09.767,test3,2020.2.4,Win32,60,,,m,3.1185,0,58,58,58,1
,,,,z,4.66543,0,59,59,59,1,paints/images/98.jpg,paints/images/3.jpg,60,GZ,1,2020-11-21_20h48.09.767,test3,2020.2.4,Win32,60,,,z,4.66543,0,59,59,59,1
,,,,z,4.753135,0,60,60,60,1,paints/images/336.jpg,paints/images/138.jpg,61,GZ,1,2020-11-21_20h48.09.767,test3,2020.2.4,Win32,60,,,z,4.753135,0,60,60,60,1
,,,,z,1.76609,0,61,61,61,1,paints/images/186.jpg,paints/images/395.jpg,62,GZ,1,2020-11-21_20h48.09.767,test3,2020.2.4,Win32,60,,,z,1.76609,0,61,61,61,1
,,,,m,3.165155,0,62,62,62,1,paints/images/76.jpg,paints/images/405.jpg,63,GZ,1,2020-11-21_20h48.09.767,test3,2020.2.4,Win32,60,,,m,3.165155,0,62,62,62,1
,,,,z,1.300125,0,63,63,63,1,paints/images/171.jpg,paints/images/381.jpg,64,GZ,1,2020-11-21_20h48.09.767,test3,2020.2.4,Win32,60,,,z,1.300125,0,63,63,63,1
,,,,m,1.890605,0,64,64,64,1,paints/images/220.jpg,paints/images/70.jpg,65,GZ,1,2020-11-21_20h48.09.767,test3,2020.2.4,Win32,60,,,m,1.890605,0,64,64,64,1
,,,,z,1.68168,0,65,65,65,1,paints/images/337.jpg,paints/images/339.jpg,66,GZ,1,2020-11-21_20h48.09.767,test3,2020.2.4,Win32,60,,,z,1.68168,0,65,65,65,1
,,,,m,2.83233,0,66,66,66,1,paints/images/258.jpg,paints/images/85.jpg,67,GZ,1,2020-11-21_20h48.09.767,test3,2020.2.4,Win32,60,,,m,2.83233,0,66,66,66,1
,,,,m,3.96574,0,67,67,67,1,paints/images/273.jpg,paints/images/113.jpg,68,GZ,1,2020-11-21_20h48.09.767,test3,2020.2.4,Win32,60,,,m,3.96574,0,67,67,67,1
,,,,m,2.352815,0,68,68,68,1,paints/images/353.jpg,paints/images/368.jpg,69,GZ,1,2020-11-21_20h48.09.767,test3,2020.2.4,Win32,60,,,m,2.352815,0,68,68,68,1
,,,,z,1.68136,0,69,69,69,1,paints/images/187.jpg,paints/images/86.jpg,70,GZ,1,2020-11-21_20h48.09.767,test3,2020.2.4,Win32,60,,,z,1.68136,0,69,69,69,1
,,,,m,3.88228,0,70,70,70,1,paints/images/176.jpg,paints/images/193.jpg,71,GZ,1,2020-11-21_20h48.09.767,test3,2020.2.4,Win32,60,,,m,3.88228,0,70,70,70,1
,,,,m,1.786785,0,71,71,71,1,paints/images/175.jpg,paints/images/194.jpg,72,GZ,1,2020-11-21_20h48.09.767,test3,2020.2.4,Win32,60,,,m,1.786785,0,71,71,71,1
,,,,z,2.3323,0,72,72,72,1,paints/images/407.jpg,paints/images/81.jpg,73,GZ,1,2020-11-21_20h48.09.767,test3,2020.2.4,Win32,60,,,z,2.3323,0,72,72,72,1
,,,,z,2.137895,0,73,73,73,1,paints/images/276.jpg,paints/images/77.jpg,74,GZ,1,2020-11-21_20h48.09.767,test3,2020.2.4,Win32,60,,,z,2.137895,0,73,73,73,1
,,,,m,2.28167,0,74,74,74,1,paints/images/291.jpg,paints/images/314.jpg,75,GZ,1,2020-11-21_20h48.09.767,test3,2020.2.4,Win32,60,,,m,2.28167,0,74,74,74,1
,,,,z,3.707415,0,75,75,75,1,paints/images/127.jpg,paints/images/36.jpg,76,GZ,1,2020-11-21_20h48.09.767,test3,2020.2.4,Win32,60,,,z,3.707415,0,75,75,75,1
,,,,z,2.6888,0,76,76,76,1,paints/images/372.jpg,paints/images/161.jpg,77,GZ,1,2020-11-21_20h48.09.767,test3,2020.2.4,Win32,60,,,z,2.6888,0,76,76,76,1
,,,,m,4.03937,0,77,77,77,1,paints/images/283.jpg,paints/images/350.jpg,78,GZ,1,2020-11-21_20h48.09.767,test3,2020.2.4,Win32,60,,,m,4.03937,0,77,77,77,1
,,,,m,1.849575,0,78,78,78,1,paints/images/106.jpg,paints/images/68.jpg,79,GZ,1,2020-11-21_20h48.09.767,test3,2020.2.4,Win32,60,,,m,1.849575,0,78,78,78,1
,,,,m,1.68207,0,79,79,79,1,paints/images/224.jpg,paints/images/266.jpg,80,GZ,1,2020-11-21_20h48.09.767,test3,2020.2.4,Win32,60,,,m,1.68207,0,79,79,79,1
,,,,m,1.83625,0,80,80,80,1,paints/images/375.jpg,paints/images/264.jpg,81,GZ,1,2020-11-21_20h48.09.767,test3,2020.2.4,Win32,60,,,m,1.83625,0,80,80,80,1
,,,,z,1.322355,0,81,81,81,1,paints/images/47.jpg,paints/images/87.jpg,82,GZ,1,2020-11-21_20h48.09.767,test3,2020.2.4,Win32,60,,,z,1.322355,0,81,81,81,1
,,,,z,2.066505,0,82,82,82,1,paints/images/38.jpg,paints/images/298.jpg,83,GZ,1,2020-11-21_20h48.09.767,test3,2020.2.4,Win32,60,,,z,2.066505,0,82,82,82,1
,,,,m,2.14934,0,83,83,83,1,paints/images/161.jpg,paints/images/28.jpg,84,GZ,1,2020-11-21_20h48.09.767,test3,2020.2.4,Win32,60,,,m,2.14934,0,83,83,83,1
,,,,m,2.915765,0,84,84,84,1,paints/images/298.jpg,paints/images/345.jpg,85,GZ,1,2020-11-21_20h48.09.767,test3,2020.2.4,Win32,60,,,m,2.915765,0,84,84,84,1
,,,,m,3.0334,0,85,85,85,1,paints/images/163.jpg,paints/images/205.jpg,86,GZ,1,2020-11-21_20h48.09.767,test3,2020.2.4,Win32,60,,,m,3.0334,0,85,85,85,1
,,,,z,3.02066,0,86,86,86,1,paints/images/121.jpg,paints/images/252.jpg,87,GZ,1,2020-11-21_20h48.09.767,test3,2020.2.4,Win32,60,,,z,3.02066,0,86,86,86,1
,,,,m,1.249455,0,87,87,87,1,paints/images/247.jpg,paints/images/95.jpg,88,GZ,1,2020-11-21_20h48.09.767,test3,2020.2.4,Win32,60,,,m,1.249455,0,87,87,87,1
,,,,z,1.400695,0,88,88,88,1,paints/images/321.jpg,paints/images/150.jpg,89,GZ,1,2020-11-21_20h48.09.767,test3,2020.2.4,Win32,60,,,z,1.400695,0,88,88,88,1
,,,,m,2.14885,0,89,89,89,1,paints/images/46.jpg,paints/images/226.jpg,90,GZ,1,2020-11-21_20h48.09.767,test3,2020.2.4,Win32,60,,,m,2.14885,0,89,89,89,1
,,,,z,1.569575,0,90,90,90,1,paints/images/154.jpg,paints/images/263.jpg,91,GZ,1,2020-11-21_20h48.09.767,test3,2020.2.4,Win32,60,,,z,1.569575,0,90,90,90,1
,,,,z,2.53684,0,91,91,91,1,paints/images/191.jpg,paints/images/158.jpg,92,GZ,1,2020-11-21_20h48.09.767,test3,2020.2.4,Win32,60,,,z,2.53684,0,91,91,91,1
,,,,m,1.94922,0,92,92,92,1,paints/images/49.jpg,paints/images/227.jpg,93,GZ,1,2020-11-21_20h48.09.767,test3,2020.2.4,Win32,60,,,m,1.94922,0,92,92,92,1
,,,,z,2.69995,0,93,93,93,1,paints/images/124.jpg,paints/images/89.jpg,94,GZ,1,2020-11-21_20h48.09.767,test3,2020.2.4,Win32,60,,,z,2.69995,0,93,93,93,1
,,,,m,4.40756,0,94,94,94,1,paints/images/390.jpg,paints/images/43.jpg,95,GZ,1,2020-11-21_20h48.09.767,test3,2020.2.4,Win32,60,,,m,4.40756,0,94,94,94,1
,,,,m,3.49995,0,95,95,95,1,paints/images/42.jpg,paints/images/268.jpg,96,GZ,1,2020-11-21_20h48.09.767,test3,2020.2.4,Win32,60,,,m,3.49995,0,95,95,95,1
,,,,m,4.173375,0,96,96,96,1,paints/images/113.jpg,paints/images/386.jpg,97,GZ,1,2020-11-21_20h48.09.767,test3,2020.2.4,Win32,60,,,m,4.173375,0,96,96,96,1
,,,,z,1.34873,0,97,97,97,1,paints/images/287.jpg,paints/images/307.jpg,98,GZ,1,2020-11-21_20h48.09.767,test3,2020.2.4,Win32,60,,,z,1.34873,0,97,97,97,1
,,,,m,1.832705,0,98,98,98,1,paints/images/134.jpg,paints/images/300.jpg,99,GZ,1,2020-11-21_20h48.09.767,test3,2020.2.4,Win32,60,,,m,1.832705,0,98,98,98,1
,,,,z,3.41651,0,99,99,99,1,paints/images/60.jpg,paints/images/206.jpg,100,GZ,1,2020-11-21_20h48.09.767,test3,2020.2.4,Win32,60,,,z,3.41651,0,99,99,99,1
,,,,m,3.466475,0,100,100,100,1,paints/images/384.jpg,paints/images/335.jpg,101,GZ,1,2020-11-21_20h48.09.767,test3,2020.2.4,Win32,60,,,m,3.466475,0,100,100,100,1
,,,,z,1.399835,0,101,101,101,1,paints/images/326.jpg,paints/images/139.jpg,102,GZ,1,2020-11-21_20h48.09.767,test3,2020.2.4,Win32,60,,,z,1.399835,0,101,101,101,1
,,,,z,3.41586,0,102,102,102,1,paints/images/166.jpg,paints/images/374.jpg,103,GZ,1,2020-11-21_20h48.09.767,test3,2020.2.4,Win32,60,,,z,3.41586,0,102,102,102,1
,,,,z,2.36893,0,103,103,103,1,paints/images/360.jpg,paints/images/10.jpg,104,GZ,1,2020-11-21_20h48.09.767,test3,2020.2.4,Win32,60,,,z,2.36893,0,103,103,103,1
,,,,z,1.998055,0,104,104,104,1,paints/images/158.jpg,paints/images/149.jpg,105,GZ,1,2020-11-21_20h48.09.767,test3,2020.2.4,Win32,60,,,z,1.998055,0,104,104,104,1
,,,,z,4.11543,0,105,105,105,1,paints/images/159.jpg,paints/images/362.jpg,106,GZ,1,2020-11-21_20h48.09.767,test3,2020.2.4,Win32,60,,,z,4.11543,0,105,105,105,1
,,,,z,1.94903,0,106,106,106,1,paints/images/214.jpg,paints/images/116.jpg,107,GZ,1,2020-11-21_20h48.09.767,test3,2020.2.4,Win32,60,,,z,1.94903,0,106,106,106,1
,,,,m,4.749685,0,107,107,107,1,paints/images/256.jpg,paints/images/323.jpg,108,GZ,1,2020-11-21_20h48.09.767,test3,2020.2.4,Win32,60,,,m,4.749685,0,107,107,107,1
,,,,m,1.282315,0,108,108,108,1,paints/images/36.jpg,paints/images/157.jpg,109,GZ,1,2020-11-21_20h48.09.767,test3,2020.2.4,Win32,60,,,m,1.282315,0,108,108,108,1
,,,,m,2.01769,0,109,109,109,1,paints/images/101.jpg,paints/images/126.jpg,110,GZ,1,2020-11-21_20h48.09.767,test3,2020.2.4,Win32,60,,,m,2.01769,0,109,109,109,1
,,,,z,3.23283,0,110,110,110,1,paints/images/265.jpg,paints/images/35.jpg,111,GZ,1,2020-11-21_20h48.09.767,test3,2020.2.4,Win32,60,,,z,3.23283,0,110,110,110,1
,,,,z,2.183015,0,111,111,111,1,paints/images/392.jpg,paints/images/233.jpg,112,GZ,1,2020-11-21_20h48.09.767,test3,2020.2.4,Win32,60,,,z,2.183015,0,111,111,111,1
,,,,z,2.416385,0,112,112,112,1,paints/images/251.jpg,paints/images/12.jpg,113,GZ,1,2020-11-21_20h48.09.767,test3,2020.2.4,Win32,60,,,z,2.416385,0,112,112,112,1
,,,,m,1.155005,0,113,113,113,1,paints/images/12.jpg,paints/images/144.jpg,114,GZ,1,2020-11-21_20h48.09.767,test3,2020.2.4,Win32,60,,,m,1.155005,0,113,113,113,1
,,,,z,4.76566,0,114,114,114,1,paints/images/133.jpg,paints/images/331.jpg,115,GZ,1,2020-11-21_20h48.09.767,test3,2020.2.4,Win32,60,,,z,4.76566,0,114,114,114,1
,,,,z,2.57069,0,115,115,115,1,paints/images/383.jpg,paints/images/99.jpg,116,GZ,1,2020-11-21_20h48.09.767,test3,2020.2.4,Win32,60,,,z,2.57069,0,115,115,115,1
,,,,z,3.01532,0,116,116,116,1,paints/images/211.jpg,paints/images/303.jpg,117,GZ,1,2020-11-21_20h48.09.767,test3,2020.2.4,Win32,60,,,z,3.01532,0,116,116,116,1
,,,,m,1.732765,0,117,117,117,1,paints/images/201.jpg,paints/images/238.jpg,118,GZ,1,2020-11-21_20h48.09.767,test3,2020.2.4,Win32,60,,,m,1.732765,0,117,117,117,1
,,,,m,2.814995,0,118,118,118,1,paints/images/205.jpg,paints/images/102.jpg,119,GZ,1,2020-11-21_20h48.09.767,test3,2020.2.4,Win32,60,,,m,2.814995,0,118,118,118,1
,,,,m,2.45145,0,119,119,119,1,paints/images/270.jpg,paints/images/322.jpg,120,GZ,1,2020-11-21_20h48.09.767,test3,2020.2.4,Win32,60,,,m,2.45145,0,119,119,119,1
,,,,m,1.48598,0,120,120,120,1,paints/images/341.jpg,paints/images/248.jpg,121,GZ,1,2020-11-21_20h48.09.767,test3,2020.2.4,Win32,60,,,m,1.48598,0,120,120,120,1
,,,,z,3.76549,0,121,121,121,1,paints/images/141.jpg,paints/images/94.jpg,122,GZ,1,2020-11-21_20h48.09.767,test3,2020.2.4,Win32,60,,,z,3.76549,0,121,121,121,1
,,,,z,1.684895,0,122,122,122,1,paints/images/83.jpg,paints/images/327.jpg,123,GZ,1,2020-11-21_20h48.09.767,test3,2020.2.4,Win32,60,,,z,1.684895,0,122,122,122,1
,,,,z,3.788675,0,123,123,123,1,paints/images/327.jpg,paints/images/110.jpg,124,GZ,1,2020-11-21_20h48.09.767,test3,2020.2.4,Win32,60,,,z,3.788675,0,123,123,123,1
,,,,m,1.966395,0,124,124,124,1,paints/images/157.jpg,paints/images/79.jpg,125,GZ,1,2020-11-21_20h48.09.767,test3,2020.2.4,Win32,60,,,m,1.966395,0,124,124,124,1
,,,,z,2.104725,0,125,125,125,1,paints/images/193.jpg,paints/images/74.jpg,126,GZ,1,2020-11-21_20h48.09.767,test3,2020.2.4,Win32,60,,,z,2.104725,0,125,125,125,1
,,,,z,1.448935,0,126,126,126,1,paints/images/140.jpg,paints/images/292.jpg,127,GZ,1,2020-11-21_20h48.09.767,test3,2020.2.4,Win32,60,,,z,1.448935,0,126,126,126,1
,,,,m,1.866145,0,127,127,127,1,paints/images/107.jpg,paints/images/92.jpg,128,GZ,1,2020-11-21_20h48.09.767,test3,2020.2.4,Win32,60,,,m,1.866145,0,127,127,127,1
,,,,z,3.368035,0,128,128,128,1,paints/images/7.jpg,paints/images/56.jpg,129,GZ,1,2020-11-21_20h48.09.767,test3,2020.2.4,Win32,60,,,z,3.368035,0,128,128,128,1
,,,,z,2.68263,0,129,129,129,1,paints/images/177.jpg,paints/images/141.jpg,130,GZ,1,2020-11-21_20h48.09.767,test3,2020.2.4,Win32,60,,,z,2.68263,0,129,129,129,1
,,,,z,2.08104,0,130,130,130,1,paints/images/244.jpg,paints/images/250.jpg,131,GZ,1,2020-11-21_20h48.09.767,test3,2020.2.4,Win32,60,,,z,2.08104,0,130,130,130,1
,,,,z,2.53414,0,131,131,131,1,paints/images/253.jpg,paints/images/8.jpg,132,GZ,1,2020-11-21_20h48.09.767,test3,2020.2.4,Win32,60,,,z,2.53414,0,131,131,131,1
,,,,m,0.915505,0,132,132,132,1,paints/images/136.jpg,paints/images/108.jpg,133,GZ,1,2020-11-21_20h48.09.767,test3,2020.2.4,Win32,60,,,m,0.915505,0,132,132,132,1
,,,,z,2.03252,0,133,133,133,1,paints/images/165.jpg,paints/images/147.jpg,134,GZ,1,2020-11-21_20h48.09.767,test3,2020.2.4,Win32,60,,,z,2.03252,0,133,133,133,1
,,,,z,1.133015,0,134,134,134,1,paints/images/39.jpg,paints/images/387.jpg,135,GZ,1,2020-11-21_20h48.09.767,test3,2020.2.4,Win32,60,,,z,1.133015,0,134,134,134,1
,,,,z,1.337725,0,135,135,135,1,paints/images/271.jpg,paints/images/125.jpg,136,GZ,1,2020-11-21_20h48.09.767,test3,2020.2.4,Win32,60,,,z,1.337725,0,135,135,135,1
,,,,z,2.217845,0,136,136,136,1,paints/images/90.jpg,paints/images/130.jpg,137,GZ,1,2020-11-21_20h48.09.767,test3,2020.2.4,Win32,60,,,z,2.217845,0,136,136,136,1
,,,,z,2.83362,0,137,137,137,1,paints/images/362.jpg,paints/images/60.jpg,138,GZ,1,2020-11-21_20h48.09.767,test3,2020.2.4,Win32,60,,,z,2.83362,0,137,137,137,1
,,,,m,1.020945,0,138,138,138,1,paints/images/218.jpg,paints/images/153.jpg,139,GZ,1,2020-11-21_20h48.09.767,test3,2020.2.4,Win32,60,,,m,1.020945,0,138,138,138,1
,,,,m,1.13263,0,139,139,139,1,paints/images/18.jpg,paints/images/324.jpg,140,GZ,1,2020-11-21_20h48.09.767,test3,2020.2.4,Win32,60,,,m,1.13263,0,139,139,139,1
,,,,m,2.485015,0,140,140,140,1,paints/images/29.jpg,paints/images/120.jpg,141,GZ,1,2020-11-21_20h48.09.767,test3,2020.2.4,Win32,60,,,m,2.485015,0,140,140,140,1
,,,,z,1.338755,0,141,141,141,1,paints/images/155.jpg,paints/images/142.jpg,142,GZ,1,2020-11-21_20h48.09.767,test3,2020.2.4,Win32,60,,,z,1.338755,0,141,141,141,1
,,,,z,1.115895,0,142,142,142,1,paints/images/148.jpg,paints/images/396.jpg,143,GZ,1,2020-11-21_20h48.09.767,test3,2020.2.4,Win32,60,,,z,1.115895,0,142,142,142,1
,,,,m,2.748505,0,143,143,143,1,paints/images/373.jpg,paints/images/218.jpg,144,GZ,1,2020-11-21_20h48.09.767,test3,2020.2.4,Win32,60,,,m,2.748505,0,143,143,143,1
,,,,m,1.09522,0,144,144,144,1,paints/images/231.jpg,paints/images/73.jpg,145,GZ,1,2020-11-21_20h48.09.767,test3,2020.2.4,Win32,60,,,m,1.09522,0,144,144,144,1
,,,,z,1.346745,0,145,145,145,1,paints/images/240.jpg,paints/images/356.jpg,146,GZ,1,2020-11-21_20h48.09.767,test3,2020.2.4,Win32,60,,,z,1.346745,0,145,145,145,1
,,,,z,1.08504,0,146,146,146,1,paints/images/332.jpg,paints/images/347.jpg,147,GZ,1,2020-11-21_20h48.09.767,test3,2020.2.4,Win32,60,,,z,1.08504,0,146,146,146,1
,,,,m,1.0391,0,147,147,147,1,paints/images/254.jpg,paints/images/310.jpg,148,GZ,1,2020-11-21_20h48.09.767,test3,2020.2.4,Win32,60,,,m,1.0391,0,147,147,147,1
,,,,m,1.51597,0,148,148,148,1,paints/images/405.jpg,paints/images/385.jpg,149,GZ,1,2020-11-21_20h48.09.767,test3,2020.2.4,Win32,60,,,m,1.51597,0,148,148,148,1
,,,,z,1.59709,0,149,149,149,1,paints/images/345.jpg,paints/images/274.jpg,150,GZ,1,2020-11-21_20h48.09.767,test3,2020.2.4,Win32,60,,,z,1.59709,0,149,149,149,1
,,,,z,1.34208,0,150,150,150,1,paints/images/363.jpg,paints/images/18.jpg,151,GZ,1,2020-11-21_20h48.09.767,test3,2020.2.4,Win32,60,,,z,1.34208,0,150,150,150,1
,,,,m,1.03223,0,151,151,151,1,paints/images/37.jpg,paints/images/53.jpg,152,GZ,1,2020-11-21_20h48.09.767,test3,2020.2.4,Win32,60,,,m,1.03223,0,151,151,151,1
,,,,m,2.761075,0,152,152,152,1,paints/images/315.jpg,paints/images/319.jpg,153,GZ,1,2020-11-21_20h48.09.767,test3,2020.2.4,Win32,60,,,m,2.761075,0,152,152,152,1
,,,,m,1.22441,0,153,153,153,1,paints/images/74.jpg,paints/images/403.jpg,154,GZ,1,2020-11-21_20h48.09.767,test3,2020.2.4,Win32,60,,,m,1.22441,0,153,153,153,1
,,,,m,1.082625,0,154,154,154,1,paints/images/156.jpg,paints/images/246.jpg,155,GZ,1,2020-11-21_20h48.09.767,test3,2020.2.4,Win32,60,,,m,1.082625,0,154,154,154,1
,,,,z,0.948605,0,155,155,155,1,paints/images/285.jpg,paints/images/270.jpg,156,GZ,1,2020-11-21_20h48.09.767,test3,2020.2.4,Win32,60,,,z,0.948605,0,155,155,155,1
,,,,z,1.004805,0,156,156,156,1,paints/images/17.jpg,paints/images/398.jpg,157,GZ,1,2020-11-21_20h48.09.767,test3,2020.2.4,Win32,60,,,z,1.004805,0,156,156,156,1
,,,,z,2.449305,0,157,157,157,1,paints/images/335.jpg,paints/images/27.jpg,158,GZ,1,2020-11-21_20h48.09.767,test3,2020.2.4,Win32,60,,,z,2.449305,0,157,157,157,1
,,,,z,1.114955,0,158,158,158,1,paints/images/350.jpg,paints/images/156.jpg,159,GZ,1,2020-11-21_20h48.09.767,test3,2020.2.4,Win32,60,,,z,1.114955,0,158,158,158,1
,,,,m,1.26636,0,159,159,159,1,paints/images/31.jpg,paints/images/231.jpg,160,GZ,1,2020-11-21_20h48.09.767,test3,2020.2.4,Win32,60,,,m,1.26636,0,159,159,159,1
,,,,z,1.03557,0,160,160,160,1,paints/images/114.jpg,paints/images/333.jpg,161,GZ,1,2020-11-21_20h48.09.767,test3,2020.2.4,Win32,60,,,z,1.03557,0,160,160,160,1
,,,,z,2.385005,0,161,161,161,1,paints/images/79.jpg,paints/images/408.jpg,162,GZ,1,2020-11-21_20h48.09.767,test3,2020.2.4,Win32,60,,,z,2.385005,0,161,161,161,1
,,,,z,3.598995,0,162,162,162,1,paints/images/338.jpg,paints/images/279.jpg,163,GZ,1,2020-11-21_20h48.09.767,test3,2020.2.4,Win32,60,,,z,3.598995,0,162,162,162,1
,,,,z,7.63104,0,163,163,163,1,paints/images/354.jpg,paints/images/304.jpg,164,GZ,1,2020-11-21_20h48.09.767,test3,2020.2.4,Win32,60,,,z,7.63104,0,163,163,163,1
,,,,m,1.3169,0,164,164,164,1,paints/images/128.jpg,paints/images/276.jpg,165,GZ,1,2020-11-21_20h48.09.767,test3,2020.2.4,Win32,60,,,m,1.3169,0,164,164,164,1
,,,,m,2.9178,0,165,165,165,1,paints/images/35.jpg,paints/images/188.jpg,166,GZ,1,2020-11-21_20h48.09.767,test3,2020.2.4,Win32,60,,,m,2.9178,0,165,165,165,1
,,,,z,3.848675,0,166,166,166,1,paints/images/16.jpg,paints/images/29.jpg,167,GZ,1,2020-11-21_20h48.09.767,test3,2020.2.4,Win32,60,,,z,3.848675,0,166,166,166,1
,,,,m,2.08324,0,167,167,167,1,paints/images/119.jpg,paints/images/251.jpg,168,GZ,1,2020-11-21_20h48.09.767,test3,2020.2.4,Win32,60,,,m,2.08324,0,167,167,167,1
,,,,m,5.33363,0,168,168,168,1,paints/images/207.jpg,paints/images/65.jpg,169,GZ,1,2020-11-21_20h48.09.767,test3,2020.2.4,Win32,60,,,m,5.33363,0,168,168,168,1
,,,,z,3.315895,0,169,169,169,1,paints/images/173.jpg,paints/images/373.jpg,170,GZ,1,2020-11-21_20h48.09.767,test3,2020.2.4,Win32,60,,,z,3.315895,0,169,169,169,1
,,,,z,2.78266,0,170,170,170,1,paints/images/135.jpg,paints/images/196.jpg,171,GZ,1,2020-11-21_20h48.09.767,test3,2020.2.4,Win32,60,,,z,2.78266,0,170,170,170,1
,,,,m,2.43243,0,171,171,171,1,paints/images/55.jpg,paints/images/316.jpg,172,GZ,1,2020-11-21_20h48.09.767,test3,2020.2.4,Win32,60,,,m,2.43243,0,171,171,171,1
,,,,m,1.086245,0,172,172,172,1,paints/images/343.jpg,paints/images/383.jpg,173,GZ,1,2020-11-21_20h48.09.767,test3,2020.2.4,Win32,60,,,m,1.086245,0,172,172,172,1
,,,,z,2.23547,0,173,173,173,1,paints/images/203.jpg,paints/images/186.jpg,174,GZ,1,2020-11-21_20h48.09.767,test3,2020.2.4,Win32,60,,,z,2.23547,0,173,173,173,1
,,,,z,1.53648,0,174,174,174,1,paints/images/123.jpg,paints/images/128.jpg,175,GZ,1,2020-11-21_20h48.09.767,test3,2020.2.4,Win32,60,,,z,1.53648,0,174,174,174,1
,,,,z,2.567435,0,175,175,175,1,paints/images/391.jpg,paints/images/208.jpg,176,GZ,1,2020-11-21_20h48.09.767,test3,2020.2.4,Win32,60,,,z,2.567435,0,175,175,175,1
,,,,z,2.948915,0,176,176,176,1,paints/images/105.jpg,paints/images/313.jpg,177,GZ,1,2020-11-21_20h48.09.767,test3,2020.2.4,Win32,60,,,z,2.948915,0,176,176,176,1
,,,,z,1.80574,0,177,177,177,1,paints/images/184.jpg,paints/images/69.jpg,178,GZ,1,2020-11-21_20h48.09.767,test3,2020.2.4,Win32,60,,,z,1.80574,0,177,177,177,1
,,,,m,2.31871,0,178,178,178,1,paints/images/63.jpg,paints/images/191.jpg,179,GZ,1,2020-11-21_20h48.09.767,test3,2020.2.4,Win32,60,,,m,2.31871,0,178,178,178,1
,,,,z,1.79328,0,179,179,179,1,paints/images/85.jpg,paints/images/390.jpg,180,GZ,1,2020-11-21_20h48.09.767,test3,2020.2.4,Win32,60,,,z,1.79328,0,179,179,179,1
,,,,m,1.171405,0,180,180,180,1,paints/images/179.jpg,paints/images/177.jpg,181,GZ,1,2020-11-21_20h48.09.767,test3,2020.2.4,Win32,60,,,m,1.171405,0,180,180,180,1
,,,,z,2.899735,0,181,181,181,1,paints/images/320.jpg,paints/images/171.jpg,182,GZ,1,2020-11-21_20h48.09.767,test3,2020.2.4,Win32,60,,,z,2.899735,0,181,181,181,1
,,,,m,2.402615,0,182,182,182,1,paints/images/77.jpg,paints/images/406.jpg,183,GZ,1,2020-11-21_20h48.09.767,test3,2020.2.4,Win32,60,,,m,2.402615,0,182,182,182,1
,,,,z,1.815685,0,183,183,183,1,paints/images/66.jpg,paints/images/255.jpg,184,GZ,1,2020-11-21_20h48.09.767,test3,2020.2.4,Win32,60,,,z,1.815685,0,183,183,183,1
,,,,m,2.16552,0,184,184,184,1,paints/images/308.jpg,paints/images/41.jpg,185,GZ,1,2020-11-21_20h48.09.767,test3,2020.2.4,Win32,60,,,m,2.16552,0,184,184,184,1
,,,,z,1.252275,0,185,185,185,1,paints/images/260.jpg,paints/images/297.jpg,186,GZ,1,2020-11-21_20h48.09.767,test3,2020.2.4,Win32,60,,,z,1.252275,0,185,185,185,1
,,,,z,2.465355,0,186,186,186,1,paints/images/126.jpg,paints/images/273.jpg,187,GZ,1,2020-11-21_20h48.09.767,test3,2020.2.4,Win32,60,,,z,2.465355,0,186,186,186,1
,,,,z,1.51565,0,187,187,187,1,paints/images/68.jpg,paints/images/189.jpg,188,GZ,1,2020-11-21_20h48.09.767,test3,2020.2.4,Win32,60,,,z,1.51565,0,187,187,187,1
,,,,m,1.62067,0,188,188,188,1,paints/images/144.jpg,paints/images/280.jpg,189,GZ,1,2020-11-21_20h48.09.767,test3,2020.2.4,Win32,60,,,m,1.62067,0,188,188,188,1
,,,,z,5.265825,0,189,189,189,1,paints/images/24.jpg,paints/images/389.jpg,190,GZ,1,2020-11-21_20h48.09.767,test3,2020.2.4,Win32,60,,,z,5.265825,0,189,189,189,1
,,,,z,2.165525,0,190,190,190,1,paints/images/222.jpg,paints/images/7.jpg,191,GZ,1,2020-11-21_20h48.09.767,test3,2020.2.4,Win32,60,,,z,2.165525,0,190,190,190,1
,,,,m,1.5828,0,191,191,191,1,paints/images/282.jpg,paints/images/278.jpg,192,GZ,1,2020-11-21_20h48.09.767,test3,2020.2.4,Win32,60,,,m,1.5828,0,191,191,191,1
,,,,z,6.08693,0,192,192,192,1,paints/images/190.jpg,paints/images/61.jpg,193,GZ,1,2020-11-21_20h48.09.767,test3,2020.2.4,Win32,60,,,z,6.08693,0,192,192,192,1
,,,,z,1.716535,0,193,193,193,1,paints/images/212.jpg,paints/images/402.jpg,194,GZ,1,2020-11-21_20h48.09.767,test3,2020.2.4,Win32,60,,,z,1.716535,0,193,193,193,1
,,,,z,1.782905,0,194,194,194,1,paints/images/80.jpg,paints/images/410.jpg,195,GZ,1,2020-11-21_20h48.09.767,test3,2020.2.4,Win32,60,,,z,1.782905,0,194,194,194,1
,,,,m,1.69871,0,195,195,195,1,paints/images/252.jpg,paints/images/382.jpg,196,GZ,1,2020-11-21_20h48.09.767,test3,2020.2.4,Win32,60,,,m,1.69871,0,195,195,195,1
,,,,m,2.3999,0,196,196,196,1,paints/images/71.jpg,paints/images/337.jpg,197,GZ,1,2020-11-21_20h48.09.767,test3,2020.2.4,Win32,60,,,m,2.3999,0,196,196,196,1
,,,,z,3.63608,0,197,197,197,1,paints/images/264.jpg,paints/images/118.jpg,198,GZ,1,2020-11-21_20h48.09.767,test3,2020.2.4,Win32,60,,,z,3.63608,0,197,197,197,1
,,,,m,2.88311,0,198,198,198,1,paints/images/180.jpg,paints/images/357.jpg,199,GZ,1,2020-11-21_20h48.09.767,test3,2020.2.4,Win32,60,,,m,2.88311,0,198,198,198,1
,,,,m,3.187775,0,199,199,199,1,paints/images/357.jpg,paints/images/15.jpg,200,GZ,1,2020-11-21_20h48.09.767,test3,2020.2.4,Win32,60,,,m,3.187775,0,199,199,199,1
,,,,z,1.949855,0,200,200,200,1,paints/images/401.jpg,paints/images/220.jpg,201,GZ,1,2020-11-21_20h48.09.767,test3,2020.2.4,Win32,60,,,z,1.949855,0,200,200,200,1
,,,,z,1.28669,0,201,201,201,1,paints/images/95.jpg,paints/images/135.jpg,202,GZ,1,2020-11-21_20h48.09.767,test3,2020.2.4,Win32,60,,,z,1.28669,0,201,201,201,1
,,,,m,1.499605,0,202,202,202,1,paints/images/152.jpg,paints/images/234.jpg,203,GZ,1,2020-11-21_20h48.09.767,test3,2020.2.4,Win32,60,,,m,1.499605,0,202,202,202,1
,,,,z,3.749495,0,203,203,203,1,paints/images/30.jpg,paints/images/88.jpg,204,GZ,1,2020-11-21_20h48.09.767,test3,2020.2.4,Win32,60,,,z,3.749495,0,203,203,203,1
,,,,m,2.398905,0,204,204,204,1,paints/images/194.jpg,paints/images/392.jpg,205,GZ,1,2020-11-21_20h48.09.767,test3,2020.2.4,Win32,60,,,m,2.398905,0,204,204,204,1
,,,,z,2.23979,0,205,205,205,1,paints/images/351.jpg,paints/images/103.jpg,206,GZ,1,2020-11-21_20h48.09.767,test3,2020.2.4,Win32,60,,,z,2.23979,0,205,205,205,1
,,,,z,1.267415,0,206,206,206,1,paints/images/236.jpg,paints/images/369.jpg,207,GZ,1,2020-11-21_20h48.09.767,test3,2020.2.4,Win32,60,,,z,1.267415,0,206,206,206,1
,,,,z,1.56639,0,207,207,207,1,paints/images/219.jpg,paints/images/136.jpg,208,GZ,1,2020-11-21_20h48.09.767,test3,2020.2.4,Win32,60,,,z,1.56639,0,207,207,207,1
,,,,m,3.75127,0,208,208,208,1,paints/images/306.jpg,paints/images/239.jpg,209,GZ,1,2020-11-21_20h48.09.767,test3,2020.2.4,Win32,60,,,m,3.75127,0,208,208,208,1
,,,,z,1.853395,0,209,209,209,1,paints/images/108.jpg,paints/images/259.jpg,210,GZ,1,2020-11-21_20h48.09.767,test3,2020.2.4,Win32,60,,,z,1.853395,0,209,209,209,1
,,,,m,1.46605,0,210,210,210,1,paints/images/210.jpg,paints/images/30.jpg,211,GZ,1,2020-11-21_20h48.09.767,test3,2020.2.4,Win32,60,,,m,1.46605,0,210,210,210,1
