key_resp.keys,key_resp.rt,key_resp_3.keys,key_resp_3.rt,key_resp_2.keys,key_resp_2.rt,trials.thisRepN,trials.thisTrialN,trials.thisN,trials.thisIndex,trials.ran,image_left,image_right,trial_num,participant,session,date,expName,psychopyVersion,OS,frameRate,key_resp_5.keys,key_resp_5.rt,key_resp_4.keys,key_resp_4.rt,trials_2.thisRepN,trials_2.thisTrialN,trials_2.thisN,trials_2.thisIndex,trials_2.ran
space,2.403075,space,7.28052,m,3.7512,0,0,0,0,1,paints/images/344.jpg,paints/images/121.jpg,1,kevin,1,2020-11-21_17h11.42.505,test3,2020.2.4,Win32,60,,,,,,,,,
,,,,z,2.021515,0,1,1,1,1,paints/images/369.jpg,paints/images/367.jpg,2,kevin,1,2020-11-21_17h11.42.505,test3,2020.2.4,Win32,60,,,,,,,,,
,,,,m,1.538315,0,2,2,2,1,paints/images/385.jpg,paints/images/253.jpg,3,kevin,1,2020-11-21_17h11.42.505,test3,2020.2.4,Win32,60,,,,,,,,,
,,,,z,2.524395,0,3,3,3,1,paints/images/230.jpg,paints/images/124.jpg,4,kevin,1,2020-11-21_17h11.42.505,test3,2020.2.4,Win32,60,,,,,,,,,
,,,,m,1.44141,0,4,4,4,1,paints/images/284.jpg,paints/images/172.jpg,5,kevin,1,2020-11-21_17h11.42.505,test3,2020.2.4,Win32,60,,,,,,,,,
,,,,z,1.428095,0,5,5,5,1,paints/images/325.jpg,paints/images/5.jpg,6,kevin,1,2020-11-21_17h11.42.505,test3,2020.2.4,Win32,60,,,,,,,,,
,,,,z,1.12443,0,6,6,6,1,paints/images/2.jpg,paints/images/107.jpg,7,kevin,1,2020-11-21_17h11.42.505,test3,2020.2.4,Win32,60,,,,,,,,,
,,,,m,2.035885,0,7,7,7,1,paints/images/330.jpg,paints/images/93.jpg,8,kevin,1,2020-11-21_17h11.42.505,test3,2020.2.4,Win32,60,,,,,,,,,
,,,,z,1.090455,0,8,8,8,1,paints/images/197.jpg,paints/images/20.jpg,9,kevin,1,2020-11-21_17h11.42.505,test3,2020.2.4,Win32,60,,,,,,,,,
,,,,z,1.128185,0,9,9,9,1,paints/images/233.jpg,paints/images/346.jpg,10,kevin,1,2020-11-21_17h11.42.505,test3,2020.2.4,Win32,60,,,,,,,,,
,,,,z,1.636355,0,10,10,10,1,paints/images/289.jpg,paints/images/317.jpg,11,kevin,1,2020-11-21_17h11.42.505,test3,2020.2.4,Win32,60,,,,,,,,,
,,,,z,1.53477,0,11,11,11,1,paints/images/189.jpg,paints/images/230.jpg,12,kevin,1,2020-11-21_17h11.42.505,test3,2020.2.4,Win32,60,,,,,,,,,
,,,,m,1.43734,0,12,12,12,1,paints/images/28.jpg,paints/images/401.jpg,13,kevin,1,2020-11-21_17h11.42.505,test3,2020.2.4,Win32,60,,,,,,,,,
,,,,m,2.191075,0,13,13,13,1,paints/images/183.jpg,paints/images/198.jpg,14,kevin,1,2020-11-21_17h11.42.505,test3,2020.2.4,Win32,60,,,,,,,,,
,,,,m,0.961295,0,14,14,14,1,paints/images/223.jpg,paints/images/249.jpg,15,kevin,1,2020-11-21_17h11.42.505,test3,2020.2.4,Win32,60,,,,,,,,,
,,,,m,1.06577,0,15,15,15,1,paints/images/331.jpg,paints/images/168.jpg,16,kevin,1,2020-11-21_17h11.42.505,test3,2020.2.4,Win32,60,,,,,,,,,
,,,,z,0.968255,0,16,16,16,1,paints/images/129.jpg,paints/images/21.jpg,17,kevin,1,2020-11-21_17h11.42.505,test3,2020.2.4,Win32,60,,,,,,,,,
,,,,z,0.79967,0,17,17,17,1,paints/images/250.jpg,paints/images/290.jpg,18,kevin,1,2020-11-21_17h11.42.505,test3,2020.2.4,Win32,60,,,,,,,,,
,,,,m,1.088115,0,18,18,18,1,paints/images/342.jpg,paints/images/371.jpg,19,kevin,1,2020-11-21_17h11.42.505,test3,2020.2.4,Win32,60,,,,,,,,,
,,,,m,1.124915,0,19,19,19,1,paints/images/312.jpg,paints/images/349.jpg,20,kevin,1,2020-11-21_17h11.42.505,test3,2020.2.4,Win32,60,,,,,,,,,
,,,,z,1.79042,0,20,20,20,1,paints/images/44.jpg,paints/images/23.jpg,21,kevin,1,2020-11-21_17h11.42.505,test3,2020.2.4,Win32,60,,,,,,,,,
,,,,z,1.24517,0,21,21,21,1,paints/images/209.jpg,paints/images/236.jpg,22,kevin,1,2020-11-21_17h11.42.505,test3,2020.2.4,Win32,60,,,,,,,,,
,,,,m,0.80782,0,22,22,22,1,paints/images/314.jpg,paints/images/326.jpg,23,kevin,1,2020-11-21_17h11.42.505,test3,2020.2.4,Win32,60,,,,,,,,,
,,,,z,0.793495,0,23,23,23,1,paints/images/374.jpg,paints/images/397.jpg,24,kevin,1,2020-11-21_17h11.42.505,test3,2020.2.4,Win32,60,,,,,,,,,
,,,,m,1.860525,0,24,24,24,1,paints/images/355.jpg,paints/images/400.jpg,25,kevin,1,2020-11-21_17h11.42.505,test3,2020.2.4,Win32,60,,,,,,,,,
,,,,z,1.13078,0,25,25,25,1,paints/images/346.jpg,paints/images/223.jpg,26,kevin,1,2020-11-21_17h11.42.505,test3,2020.2.4,Win32,60,,,,,,,,,
,,,,m,1.20857,0,26,26,26,1,paints/images/292.jpg,paints/images/122.jpg,27,kevin,1,2020-11-21_17h11.42.505,test3,2020.2.4,Win32,60,,,,,,,,,
,,,,z,0.738115,0,27,27,27,1,paints/images/81.jpg,paints/images/294.jpg,28,kevin,1,2020-11-21_17h11.42.505,test3,2020.2.4,Win32,60,,,,,,,,,
,,,,z,1.152755,0,28,28,28,1,paints/images/359.jpg,paints/images/370.jpg,29,kevin,1,2020-11-21_17h11.42.505,test3,2020.2.4,Win32,60,,,,,,,,,
,,,,z,0.85274,0,29,29,29,1,paints/images/88.jpg,paints/images/119.jpg,30,kevin,1,2020-11-21_17h11.42.505,test3,2020.2.4,Win32,60,,,,,,,,,
,,,,z,1.294545,0,30,30,30,1,paints/images/178.jpg,paints/images/47.jpg,31,kevin,1,2020-11-21_17h11.42.505,test3,2020.2.4,Win32,60,,,,,,,,,
,,,,m,0.94756,0,31,31,31,1,paints/images/139.jpg,paints/images/377.jpg,32,kevin,1,2020-11-21_17h11.42.505,test3,2020.2.4,Win32,60,,,,,,,,,
,,,,m,2.542865,0,32,32,32,1,paints/images/142.jpg,paints/images/379.jpg,33,kevin,1,2020-11-21_17h11.42.505,test3,2020.2.4,Win32,60,,,,,,,,,
,,,,m,2.32782,0,33,33,33,1,paints/images/366.jpg,paints/images/22.jpg,34,kevin,1,2020-11-21_17h11.42.505,test3,2020.2.4,Win32,60,,,,,,,,,
,,,,z,0.718675,0,34,34,34,1,paints/images/277.jpg,paints/images/365.jpg,35,kevin,1,2020-11-21_17h11.42.505,test3,2020.2.4,Win32,60,,,,,,,,,
,,,,z,5.945315,0,35,35,35,1,paints/images/406.jpg,paints/images/388.jpg,36,kevin,1,2020-11-21_17h11.42.505,test3,2020.2.4,Win32,60,,,,,,,,,
,,,,m,2.605125,0,36,36,36,1,paints/images/389.jpg,paints/images/104.jpg,37,kevin,1,2020-11-21_17h11.42.505,test3,2020.2.4,Win32,60,,,,,,,,,
,,,,z,1.575535,0,37,37,37,1,paints/images/20.jpg,paints/images/84.jpg,38,kevin,1,2020-11-21_17h11.42.505,test3,2020.2.4,Win32,60,,,,,,,,,
,,,,z,1.16768,0,38,38,38,1,paints/images/169.jpg,paints/images/163.jpg,39,kevin,1,2020-11-21_17h11.42.505,test3,2020.2.4,Win32,60,,,,,,,,,
,,,,m,1.32676,0,39,39,39,1,paints/images/58.jpg,paints/images/359.jpg,40,kevin,1,2020-11-21_17h11.42.505,test3,2020.2.4,Win32,60,,,,,,,,,
,,,,m,1.270925,0,40,40,40,1,paints/images/376.jpg,paints/images/256.jpg,41,kevin,1,2020-11-21_17h11.42.505,test3,2020.2.4,Win32,60,,,,,,,,,
,,,,m,1.67789,0,41,41,41,1,paints/images/33.jpg,paints/images/261.jpg,42,kevin,1,2020-11-21_17h11.42.505,test3,2020.2.4,Win32,60,,,,,,,,,
,,,,m,2.94547,0,42,42,42,1,paints/images/294.jpg,paints/images/96.jpg,43,kevin,1,2020-11-21_17h11.42.505,test3,2020.2.4,Win32,60,,,,,,,,,
,,,,m,1.51574,0,43,43,43,1,paints/images/269.jpg,paints/images/293.jpg,44,kevin,1,2020-11-21_17h11.42.505,test3,2020.2.4,Win32,60,,,,,,,,,
,,,,m,8.14114,0,44,44,44,1,paints/images/199.jpg,paints/images/284.jpg,45,kevin,1,2020-11-21_17h11.42.505,test3,2020.2.4,Win32,60,,,,,,,,,
,,,,z,6.89486,0,45,45,45,1,paints/images/255.jpg,paints/images/281.jpg,46,kevin,1,2020-11-21_17h11.42.505,test3,2020.2.4,Win32,60,,,,,,,,,
,,,,m,0.76477,0,46,46,46,1,paints/images/382.jpg,paints/images/4.jpg,47,kevin,1,2020-11-21_17h11.42.505,test3,2020.2.4,Win32,60,,,,,,,,,
,,,,z,1.290535,0,47,47,47,1,paints/images/111.jpg,paints/images/83.jpg,48,kevin,1,2020-11-21_17h11.42.505,test3,2020.2.4,Win32,60,,,,,,,,,
,,,,m,1.10151,0,48,48,48,1,paints/images/239.jpg,paints/images/151.jpg,49,kevin,1,2020-11-21_17h11.42.505,test3,2020.2.4,Win32,60,,,,,,,,,
,,,,m,0.94237,0,49,49,49,1,paints/images/84.jpg,paints/images/341.jpg,50,kevin,1,2020-11-21_17h11.42.505,test3,2020.2.4,Win32,60,,,,,,,,,
,,,,z,1.426785,0,50,50,50,1,paints/images/317.jpg,paints/images/159.jpg,51,kevin,1,2020-11-21_17h11.42.505,test3,2020.2.4,Win32,60,,,,,,,,,
,,,,m,1.34884,0,51,51,51,1,paints/images/153.jpg,paints/images/212.jpg,52,kevin,1,2020-11-21_17h11.42.505,test3,2020.2.4,Win32,60,,,,,,,,,
,,,,m,1.164765,0,52,52,52,1,paints/images/5.jpg,paints/images/361.jpg,53,kevin,1,2020-11-21_17h11.42.505,test3,2020.2.4,Win32,60,,,,,,,,,
,,,,z,1.022515,0,53,53,53,1,paints/images/319.jpg,paints/images/178.jpg,54,kevin,1,2020-11-21_17h11.42.505,test3,2020.2.4,Win32,60,,,,,,,,,
,,,,m,3.83385,0,54,54,54,1,paints/images/118.jpg,paints/images/275.jpg,55,kevin,1,2020-11-21_17h11.42.505,test3,2020.2.4,Win32,60,,,,,,,,,
,,,,z,1.37157,0,55,55,55,1,paints/images/213.jpg,paints/images/312.jpg,56,kevin,1,2020-11-21_17h11.42.505,test3,2020.2.4,Win32,60,,,,,,,,,
,,,,z,1.230825,0,56,56,56,1,paints/images/4.jpg,paints/images/131.jpg,57,kevin,1,2020-11-21_17h11.42.505,test3,2020.2.4,Win32,60,,,,,,,,,
,,,,m,1.56325,0,57,57,57,1,paints/images/206.jpg,paints/images/391.jpg,58,kevin,1,2020-11-21_17h11.42.505,test3,2020.2.4,Win32,60,,,,,,,,,
,,,,z,1.168125,0,58,58,58,1,paints/images/349.jpg,paints/images/240.jpg,59,kevin,1,2020-11-21_17h11.42.505,test3,2020.2.4,Win32,60,,,,,,,,,
,,,,m,1.373355,0,59,59,59,1,paints/images/174.jpg,paints/images/197.jpg,60,kevin,1,2020-11-21_17h11.42.505,test3,2020.2.4,Win32,60,,,,,,,,,
,,,,z,1.04202,0,60,60,60,1,paints/images/93.jpg,paints/images/330.jpg,61,kevin,1,2020-11-21_17h11.42.505,test3,2020.2.4,Win32,60,,,,,,,,,
,,,,m,3.63671,0,61,61,61,1,paints/images/262.jpg,paints/images/225.jpg,62,kevin,1,2020-11-21_17h11.42.505,test3,2020.2.4,Win32,60,,,,,,,,,
,,,,m,1.10213,0,62,62,62,1,paints/images/322.jpg,paints/images/267.jpg,63,kevin,1,2020-11-21_17h11.42.505,test3,2020.2.4,Win32,60,,,,,,,,,
,,,,z,0.774335,0,63,63,63,1,paints/images/104.jpg,paints/images/140.jpg,64,kevin,1,2020-11-21_17h11.42.505,test3,2020.2.4,Win32,60,,,,,,,,,
,,,,m,1.037295,0,64,64,64,1,paints/images/400.jpg,paints/images/355.jpg,65,kevin,1,2020-11-21_17h11.42.505,test3,2020.2.4,Win32,60,,,,,,,,,
,,,,z,1.707045,0,65,65,65,1,paints/images/89.jpg,paints/images/380.jpg,66,kevin,1,2020-11-21_17h11.42.505,test3,2020.2.4,Win32,60,,,,,,,,,
,,,,z,1.61088,0,66,66,66,1,paints/images/181.jpg,paints/images/195.jpg,67,kevin,1,2020-11-21_17h11.42.505,test3,2020.2.4,Win32,60,,,,,,,,,
,,,,z,1.236835,0,67,67,67,1,paints/images/130.jpg,paints/images/155.jpg,68,kevin,1,2020-11-21_17h11.42.505,test3,2020.2.4,Win32,60,,,,,,,,,
,,,,m,1.2156,0,68,68,68,1,paints/images/15.jpg,paints/images/55.jpg,69,kevin,1,2020-11-21_17h11.42.505,test3,2020.2.4,Win32,60,,,,,,,,,
,,,,z,0.744275,0,69,69,69,1,paints/images/393.jpg,paints/images/34.jpg,70,kevin,1,2020-11-21_17h11.42.505,test3,2020.2.4,Win32,60,,,,,,,,,
,,,,m,1.38628,0,70,70,70,1,paints/images/192.jpg,paints/images/351.jpg,71,kevin,1,2020-11-21_17h11.42.505,test3,2020.2.4,Win32,60,,,,,,,,,
,,,,m,1.03299,0,71,71,71,1,paints/images/57.jpg,paints/images/363.jpg,72,kevin,1,2020-11-21_17h11.42.505,test3,2020.2.4,Win32,60,,,,,,,,,
,,,,z,1.03205,0,72,72,72,1,paints/images/243.jpg,paints/images/295.jpg,73,kevin,1,2020-11-21_17h11.42.505,test3,2020.2.4,Win32,60,,,,,,,,,
,,,,z,1.1497,0,73,73,73,1,paints/images/196.jpg,paints/images/146.jpg,74,kevin,1,2020-11-21_17h11.42.505,test3,2020.2.4,Win32,60,,,,,,,,,
,,,,z,2.00534,0,74,74,74,1,paints/images/367.jpg,paints/images/332.jpg,75,kevin,1,2020-11-21_17h11.42.505,test3,2020.2.4,Win32,60,,,,,,,,,
,,,,z,0.981665,0,75,75,75,1,paints/images/249.jpg,paints/images/50.jpg,76,kevin,1,2020-11-21_17h11.42.505,test3,2020.2.4,Win32,60,,,,,,,,,
,,,,z,1.47542,0,76,76,76,1,paints/images/100.jpg,paints/images/91.jpg,77,kevin,1,2020-11-21_17h11.42.505,test3,2020.2.4,Win32,60,,,,,,,,,
,,,,z,1.62397,0,77,77,77,1,paints/images/301.jpg,paints/images/154.jpg,78,kevin,1,2020-11-21_17h11.42.505,test3,2020.2.4,Win32,60,,,,,,,,,
,,,,m,2.141335,0,78,78,78,1,paints/images/13.jpg,paints/images/308.jpg,79,kevin,1,2020-11-21_17h11.42.505,test3,2020.2.4,Win32,60,,,,,,,,,
,,,,z,1.03937,0,79,79,79,1,paints/images/11.jpg,paints/images/24.jpg,80,kevin,1,2020-11-21_17h11.42.505,test3,2020.2.4,Win32,60,,,,,,,,,
,,,,m,0.986805,0,80,80,80,1,paints/images/27.jpg,paints/images/114.jpg,81,kevin,1,2020-11-21_17h11.42.505,test3,2020.2.4,Win32,60,,,,,,,,,
,,,,m,1.63007,0,81,81,81,1,paints/images/334.jpg,paints/images/217.jpg,82,kevin,1,2020-11-21_17h11.42.505,test3,2020.2.4,Win32,60,,,,,,,,,
,,,,m,1.00085,0,82,82,82,1,paints/images/340.jpg,paints/images/320.jpg,83,kevin,1,2020-11-21_17h11.42.505,test3,2020.2.4,Win32,60,,,,,,,,,
,,,,m,1.190345,0,83,83,83,1,paints/images/204.jpg,paints/images/52.jpg,84,kevin,1,2020-11-21_17h11.42.505,test3,2020.2.4,Win32,60,,,,,,,,,
,,,,z,2.66266,0,84,84,84,1,paints/images/266.jpg,paints/images/179.jpg,85,kevin,1,2020-11-21_17h11.42.505,test3,2020.2.4,Win32,60,,,,,,,,,
,,,,z,2.82832,0,85,85,85,1,paints/images/309.jpg,paints/images/45.jpg,86,kevin,1,2020-11-21_17h11.42.505,test3,2020.2.4,Win32,60,,,,,,,,,
,,,,z,0.58251,0,86,86,86,1,paints/images/48.jpg,paints/images/352.jpg,87,kevin,1,2020-11-21_17h11.42.505,test3,2020.2.4,Win32,60,,,,,,,,,
,,,,m,0.710335,0,87,87,87,1,paints/images/238.jpg,paints/images/190.jpg,88,kevin,1,2020-11-21_17h11.42.505,test3,2020.2.4,Win32,60,,,,,,,,,
,,,,z,3.188875,0,88,88,88,1,paints/images/216.jpg,paints/images/207.jpg,89,kevin,1,2020-11-21_17h11.42.505,test3,2020.2.4,Win32,60,,,,,,,,,
,,,,z,1.130925,0,89,89,89,1,paints/images/228.jpg,paints/images/315.jpg,90,kevin,1,2020-11-21_17h11.42.505,test3,2020.2.4,Win32,60,,,,,,,,,
,,,,m,1.40322,0,90,90,90,1,paints/images/368.jpg,paints/images/221.jpg,91,kevin,1,2020-11-21_17h11.42.505,test3,2020.2.4,Win32,60,,,,,,,,,
,,,,m,15.0386,0,91,91,91,1,paints/images/402.jpg,paints/images/257.jpg,92,kevin,1,2020-11-21_17h11.42.505,test3,2020.2.4,Win32,60,,,,,,,,,
,,,,z,1.06871,0,92,92,92,1,paints/images/248.jpg,paints/images/296.jpg,93,kevin,1,2020-11-21_17h11.42.505,test3,2020.2.4,Win32,60,,,,,,,,,
,,,,z,1.634415,0,93,93,93,1,paints/images/234.jpg,paints/images/174.jpg,94,kevin,1,2020-11-21_17h11.42.505,test3,2020.2.4,Win32,60,,,,,,,,,
,,,,z,0.96661,0,94,94,94,1,paints/images/149.jpg,paints/images/204.jpg,95,kevin,1,2020-11-21_17h11.42.505,test3,2020.2.4,Win32,60,,,,,,,,,
,,,,z,1.094415,0,95,95,95,1,paints/images/56.jpg,paints/images/117.jpg,96,kevin,1,2020-11-21_17h11.42.505,test3,2020.2.4,Win32,60,,,,,,,,,
,,,,m,0.77282,0,96,96,96,1,paints/images/146.jpg,paints/images/287.jpg,97,kevin,1,2020-11-21_17h11.42.505,test3,2020.2.4,Win32,60,,,,,,,,,
,,,,z,0.81849,0,97,97,97,1,paints/images/221.jpg,paints/images/62.jpg,98,kevin,1,2020-11-21_17h11.42.505,test3,2020.2.4,Win32,60,,,,,,,,,
,,,,m,4.094295,0,98,98,98,1,paints/images/110.jpg,paints/images/321.jpg,99,kevin,1,2020-11-21_17h11.42.505,test3,2020.2.4,Win32,60,,,,,,,,,
,,,,z,2.54235,0,99,99,99,1,paints/images/67.jpg,paints/images/384.jpg,100,kevin,1,2020-11-21_17h11.42.505,test3,2020.2.4,Win32,60,,,,,,,,,
,,,,z,0.99937,0,100,100,100,1,paints/images/356.jpg,paints/images/137.jpg,101,kevin,1,2020-11-21_17h11.42.505,test3,2020.2.4,Win32,60,,,,,,,,,
,,,,m,0.84212,0,101,101,101,1,paints/images/274.jpg,paints/images/232.jpg,102,kevin,1,2020-11-21_17h11.42.505,test3,2020.2.4,Win32,60,,,,,,,,,
,,,,m,0.905775,0,102,102,102,1,paints/images/70.jpg,paints/images/183.jpg,103,kevin,1,2020-11-21_17h11.42.505,test3,2020.2.4,Win32,60,,,,,,,,,
,,,,m,1.307685,0,103,103,103,1,paints/images/10.jpg,paints/images/393.jpg,104,kevin,1,2020-11-21_17h11.42.505,test3,2020.2.4,Win32,60,,,,,,,,,
,,,,z,2.021845,0,104,104,104,1,paints/images/378.jpg,paints/images/181.jpg,105,kevin,1,2020-11-21_17h11.42.505,test3,2020.2.4,Win32,60,,,,,,,,,
,,,,z,1.655595,0,105,105,105,1,paints/images/303.jpg,paints/images/334.jpg,106,kevin,1,2020-11-21_17h11.42.505,test3,2020.2.4,Win32,60,,,,,,,,,
,,,,z,1.08678,0,106,106,106,1,paints/images/328.jpg,paints/images/344.jpg,107,kevin,1,2020-11-21_17h11.42.505,test3,2020.2.4,Win32,60,,,,,,,,,
,,,,z,1.61951,0,107,107,107,1,paints/images/397.jpg,paints/images/318.jpg,108,kevin,1,2020-11-21_17h11.42.505,test3,2020.2.4,Win32,60,,,,,,,,,
,,,,z,0.692605,0,108,108,108,1,paints/images/365.jpg,paints/images/211.jpg,109,kevin,1,2020-11-21_17h11.42.505,test3,2020.2.4,Win32,60,,,,,,,,,
,,,,m,1.14785,0,109,109,109,1,paints/images/23.jpg,paints/images/46.jpg,110,kevin,1,2020-11-21_17h11.42.505,test3,2020.2.4,Win32,60,,,,,,,,,
,,,,z,0.78597,0,110,110,110,1,paints/images/304.jpg,paints/images/11.jpg,111,kevin,1,2020-11-21_17h11.42.505,test3,2020.2.4,Win32,60,,,,,,,,,
,,,,m,0.92123,0,111,111,111,1,paints/images/226.jpg,paints/images/6.jpg,112,kevin,1,2020-11-21_17h11.42.505,test3,2020.2.4,Win32,60,,,,,,,,,
,,,,z,0.726995,0,112,112,112,1,paints/images/170.jpg,paints/images/262.jpg,113,kevin,1,2020-11-21_17h11.42.505,test3,2020.2.4,Win32,60,,,,,,,,,
,,,,z,0.87801,0,113,113,113,1,paints/images/259.jpg,paints/images/343.jpg,114,kevin,1,2020-11-21_17h11.42.505,test3,2020.2.4,Win32,60,,,,,,,,,
,,,,z,1.38621,0,114,114,114,1,paints/images/19.jpg,paints/images/394.jpg,115,kevin,1,2020-11-21_17h11.42.505,test3,2020.2.4,Win32,60,,,,,,,,,
,,,,z,1.068225,0,115,115,115,1,paints/images/215.jpg,paints/images/19.jpg,116,kevin,1,2020-11-21_17h11.42.505,test3,2020.2.4,Win32,60,,,,,,,,,
,,,,z,0.738875,0,116,116,116,1,paints/images/52.jpg,paints/images/360.jpg,117,kevin,1,2020-11-21_17h11.42.505,test3,2020.2.4,Win32,60,,,,,,,,,
,,,,z,1.4654,0,117,117,117,1,paints/images/99.jpg,paints/images/328.jpg,118,kevin,1,2020-11-21_17h11.42.505,test3,2020.2.4,Win32,60,,,,,,,,,
,,,,z,1.252285,0,118,118,118,1,paints/images/150.jpg,paints/images/164.jpg,119,kevin,1,2020-11-21_17h11.42.505,test3,2020.2.4,Win32,60,,,,,,,,,
,,,,m,0.723705,0,119,119,119,1,paints/images/172.jpg,paints/images/213.jpg,120,kevin,1,2020-11-21_17h11.42.505,test3,2020.2.4,Win32,60,,,,,,,,,
,,,,m,1.134015,0,120,120,120,1,paints/images/50.jpg,paints/images/101.jpg,121,kevin,1,2020-11-21_17h11.42.505,test3,2020.2.4,Win32,60,,,,,,,,,
,,,,m,1.937065,0,121,121,121,1,paints/images/358.jpg,paints/images/354.jpg,122,kevin,1,2020-11-21_17h11.42.505,test3,2020.2.4,Win32,60,,,,,,,,,
,,,,m,0.856065,0,122,122,122,1,paints/images/257.jpg,paints/images/265.jpg,123,kevin,1,2020-11-21_17h11.42.505,test3,2020.2.4,Win32,60,,,,,,,,,
,,,,z,1.476395,0,123,123,123,1,paints/images/91.jpg,paints/images/342.jpg,124,kevin,1,2020-11-21_17h11.42.505,test3,2020.2.4,Win32,60,,,,,,,,,
,,,,z,0.765305,0,124,124,124,1,paints/images/168.jpg,paints/images/132.jpg,125,kevin,1,2020-11-21_17h11.42.505,test3,2020.2.4,Win32,60,,,,,,,,,
,,,,z,6.684225,0,125,125,125,1,paints/images/280.jpg,paints/images/98.jpg,126,kevin,1,2020-11-21_17h11.42.505,test3,2020.2.4,Win32,60,,,,,,,,,
,,,,z,0.95599,0,126,126,126,1,paints/images/261.jpg,paints/images/40.jpg,127,kevin,1,2020-11-21_17h11.42.505,test3,2020.2.4,Win32,60,,,,,,,,,
,,,,z,3.84911,0,127,127,127,1,paints/images/333.jpg,paints/images/66.jpg,128,kevin,1,2020-11-21_17h11.42.505,test3,2020.2.4,Win32,60,,,,,,,,,
,,,,z,5.07172,0,128,128,128,1,paints/images/96.jpg,paints/images/82.jpg,129,kevin,1,2020-11-21_17h11.42.505,test3,2020.2.4,Win32,60,,,,,,,,,
,,,,m,0.8657,0,129,129,129,1,paints/images/32.jpg,paints/images/325.jpg,130,kevin,1,2020-11-21_17h11.42.505,test3,2020.2.4,Win32,60,,,,,,,,,
,,,,m,3.05731,0,130,130,130,1,paints/images/268.jpg,paints/images/167.jpg,131,kevin,1,2020-11-21_17h11.42.505,test3,2020.2.4,Win32,60,,,,,,,,,
,,,,m,1.63828,0,131,131,131,1,paints/images/162.jpg,paints/images/25.jpg,132,kevin,1,2020-11-21_17h11.42.505,test3,2020.2.4,Win32,60,,,,,,,,,
,,,,z,1.630055,0,132,132,132,1,paints/images/53.jpg,paints/images/305.jpg,133,kevin,1,2020-11-21_17h11.42.505,test3,2020.2.4,Win32,60,,,,,,,,,
,,,,z,1.06084,0,133,133,133,1,paints/images/263.jpg,paints/images/209.jpg,134,kevin,1,2020-11-21_17h11.42.505,test3,2020.2.4,Win32,60,,,,,,,,,
,,,,z,0.892555,0,134,134,134,1,paints/images/92.jpg,paints/images/364.jpg,135,kevin,1,2020-11-21_17h11.42.505,test3,2020.2.4,Win32,60,,,,,,,,,
,,,,m,0.7999,0,135,135,135,1,paints/images/61.jpg,paints/images/291.jpg,136,kevin,1,2020-11-21_17h11.42.505,test3,2020.2.4,Win32,60,,,,,,,,,
,,,,z,1.16237,0,136,136,136,1,paints/images/293.jpg,paints/images/283.jpg,137,kevin,1,2020-11-21_17h11.42.505,test3,2020.2.4,Win32,60,,,,,,,,,
,,,,m,0.88683,0,137,137,137,1,paints/images/229.jpg,paints/images/173.jpg,138,kevin,1,2020-11-21_17h11.42.505,test3,2020.2.4,Win32,60,,,,,,,,,
,,,,m,1.96268,0,138,138,138,1,paints/images/41.jpg,paints/images/133.jpg,139,kevin,1,2020-11-21_17h11.42.505,test3,2020.2.4,Win32,60,,,,,,,,,
,,,,z,1.57955,0,139,139,139,1,paints/images/182.jpg,paints/images/348.jpg,140,kevin,1,2020-11-21_17h11.42.505,test3,2020.2.4,Win32,60,,,,,,,,,
,,,,m,0.987875,0,140,140,140,1,paints/images/379.jpg,paints/images/228.jpg,141,kevin,1,2020-11-21_17h11.42.505,test3,2020.2.4,Win32,60,,,,,,,,,
,,,,z,2.24504,0,141,141,141,1,paints/images/188.jpg,paints/images/13.jpg,142,kevin,1,2020-11-21_17h11.42.505,test3,2020.2.4,Win32,60,,,,,,,,,
,,,,z,0.659925,0,142,142,142,1,paints/images/40.jpg,paints/images/329.jpg,143,kevin,1,2020-11-21_17h11.42.505,test3,2020.2.4,Win32,60,,,,,,,,,
,,,,m,1.00539,0,143,143,143,1,paints/images/323.jpg,paints/images/165.jpg,144,kevin,1,2020-11-21_17h11.42.505,test3,2020.2.4,Win32,60,,,,,,,,,
,,,,z,0.57803,0,144,144,144,1,paints/images/78.jpg,paints/images/407.jpg,145,kevin,1,2020-11-21_17h11.42.505,test3,2020.2.4,Win32,60,,,,,,,,,
,,,,m,0.70741,0,145,145,145,1,paints/images/242.jpg,paints/images/75.jpg,146,kevin,1,2020-11-21_17h11.42.505,test3,2020.2.4,Win32,60,,,,,,,,,
,,,,m,1.10971,0,146,146,146,1,paints/images/62.jpg,paints/images/187.jpg,147,kevin,1,2020-11-21_17h11.42.505,test3,2020.2.4,Win32,60,,,,,,,,,
,,,,z,0.870705,0,147,147,147,1,paints/images/131.jpg,paints/images/285.jpg,148,kevin,1,2020-11-21_17h11.42.505,test3,2020.2.4,Win32,60,,,,,,,,,
,,,,m,1.4353,0,148,148,148,1,paints/images/241.jpg,paints/images/97.jpg,149,kevin,1,2020-11-21_17h11.42.505,test3,2020.2.4,Win32,60,,,,,,,,,
,,,,m,2.467565,0,149,149,149,1,paints/images/132.jpg,paints/images/289.jpg,150,kevin,1,2020-11-21_17h11.42.505,test3,2020.2.4,Win32,60,,,,,,,,,
,,,,z,30.596915,0,150,150,150,1,paints/images/185.jpg,paints/images/54.jpg,151,kevin,1,2020-11-21_17h11.42.505,test3,2020.2.4,Win32,60,,,,,,,,,
,,,,m,0.96549,0,151,151,151,1,paints/images/272.jpg,paints/images/51.jpg,152,kevin,1,2020-11-21_17h11.42.505,test3,2020.2.4,Win32,60,,,,,,,,,
,,,,m,1.23799,0,152,152,152,1,paints/images/403.jpg,paints/images/71.jpg,153,kevin,1,2020-11-21_17h11.42.505,test3,2020.2.4,Win32,60,,,,,,,,,
,,,,m,0.861545,0,153,153,153,1,paints/images/202.jpg,paints/images/219.jpg,154,kevin,1,2020-11-21_17h11.42.505,test3,2020.2.4,Win32,60,,,,,,,,,
,,,,m,0.85364,0,154,154,154,1,paints/images/34.jpg,paints/images/271.jpg,155,kevin,1,2020-11-21_17h11.42.505,test3,2020.2.4,Win32,60,,,,,,,,,
,,,,m,2.33713,0,155,155,155,1,paints/images/296.jpg,paints/images/90.jpg,156,kevin,1,2020-11-21_17h11.42.505,test3,2020.2.4,Win32,60,,,,,,,,,
,,,,z,0.636255,0,156,156,156,1,paints/images/25.jpg,paints/images/338.jpg,157,kevin,1,2020-11-21_17h11.42.505,test3,2020.2.4,Win32,60,,,,,,,,,
,,,,z,1.77028,0,157,157,157,1,paints/images/396.jpg,paints/images/78.jpg,158,kevin,1,2020-11-21_17h11.42.505,test3,2020.2.4,Win32,60,,,,,,,,,
,,,,z,1.56136,0,158,158,158,1,paints/images/72.jpg,paints/images/111.jpg,159,kevin,1,2020-11-21_17h11.42.505,test3,2020.2.4,Win32,60,,,,,,,,,
,,,,z,0.75687,0,159,159,159,1,paints/images/164.jpg,paints/images/16.jpg,160,kevin,1,2020-11-21_17h11.42.505,test3,2020.2.4,Win32,60,,,,,,,,,
,,,,z,1.120415,0,160,160,160,1,paints/images/387.jpg,paints/images/244.jpg,161,kevin,1,2020-11-21_17h11.42.505,test3,2020.2.4,Win32,60,,,,,,,,,
,,,,z,2.976645,0,161,161,161,1,paints/images/64.jpg,paints/images/260.jpg,162,kevin,1,2020-11-21_17h11.42.505,test3,2020.2.4,Win32,60,,,,,,,,,
,,,,m,0.74433,0,162,162,162,1,paints/images/160.jpg,paints/images/63.jpg,163,kevin,1,2020-11-21_17h11.42.505,test3,2020.2.4,Win32,60,,,,,,,,,
,,,,z,2.212205,0,163,163,163,1,paints/images/3.jpg,paints/images/282.jpg,164,kevin,1,2020-11-21_17h11.42.505,test3,2020.2.4,Win32,60,,,,,,,,,
,,,,m,0.6767,0,164,164,164,1,paints/images/307.jpg,paints/images/152.jpg,165,kevin,1,2020-11-21_17h11.42.505,test3,2020.2.4,Win32,60,,,,,,,,,
,,,,z,1.64405,0,165,165,165,1,paints/images/311.jpg,paints/images/123.jpg,166,kevin,1,2020-11-21_17h11.42.505,test3,2020.2.4,Win32,60,,,,,,,,,
,,,,m,2.52031,0,166,166,166,1,paints/images/143.jpg,paints/images/286.jpg,167,kevin,1,2020-11-21_17h11.42.505,test3,2020.2.4,Win32,60,,,,,,,,,
,,,,z,0.977015,0,167,167,167,1,paints/images/97.jpg,paints/images/216.jpg,168,kevin,1,2020-11-21_17h11.42.505,test3,2020.2.4,Win32,60,,,,,,,,,
,,,,m,0.758185,0,168,168,168,1,paints/images/395.jpg,paints/images/170.jpg,169,kevin,1,2020-11-21_17h11.42.505,test3,2020.2.4,Win32,60,,,,,,,,,
,,,,z,0.75233,0,169,169,169,1,paints/images/151.jpg,paints/images/26.jpg,170,kevin,1,2020-11-21_17h11.42.505,test3,2020.2.4,Win32,60,,,,,,,,,
,,,,z,0.77544,0,170,170,170,1,paints/images/51.jpg,paints/images/32.jpg,171,kevin,1,2020-11-21_17h11.42.505,test3,2020.2.4,Win32,60,,,,,,,,,
,,,,m,1.454615,0,171,171,171,1,paints/images/305.jpg,paints/images/176.jpg,172,kevin,1,2020-11-21_17h11.42.505,test3,2020.2.4,Win32,60,,,,,,,,,
,,,,m,0.92365,0,172,172,172,1,paints/images/137.jpg,paints/images/48.jpg,173,kevin,1,2020-11-21_17h11.42.505,test3,2020.2.4,Win32,60,,,,,,,,,
,,,,m,0.933175,0,173,173,173,1,paints/images/65.jpg,paints/images/243.jpg,174,kevin,1,2020-11-21_17h11.42.505,test3,2020.2.4,Win32,60,,,,,,,,,
,,,,z,0.831265,0,174,174,174,1,paints/images/115.jpg,paints/images/210.jpg,175,kevin,1,2020-11-21_17h11.42.505,test3,2020.2.4,Win32,60,,,,,,,,,
,,,,z,1.40321,0,175,175,175,1,paints/images/310.jpg,paints/images/58.jpg,176,kevin,1,2020-11-21_17h11.42.505,test3,2020.2.4,Win32,60,,,,,,,,,
,,,,m,1.85815,0,176,176,176,1,paints/images/1.jpg,paints/images/112.jpg,177,kevin,1,2020-11-21_17h11.42.505,test3,2020.2.4,Win32,60,,,,,,,,,
,,,,z,0.850165,0,177,177,177,1,paints/images/125.jpg,paints/images/17.jpg,178,kevin,1,2020-11-21_17h11.42.505,test3,2020.2.4,Win32,60,,,,,,,,,
,,,,z,1.13044,0,178,178,178,1,paints/images/279.jpg,paints/images/166.jpg,179,kevin,1,2020-11-21_17h11.42.505,test3,2020.2.4,Win32,60,,,,,,,,,
,,,,z,1.38751,0,179,179,179,1,paints/images/316.jpg,paints/images/306.jpg,180,kevin,1,2020-11-21_17h11.42.505,test3,2020.2.4,Win32,60,,,,,,,,,
,,,,m,0.8093,0,180,180,180,1,paints/images/22.jpg,paints/images/214.jpg,181,kevin,1,2020-11-21_17h11.42.505,test3,2020.2.4,Win32,60,,,,,,,,,
,,,,m,0.924835,0,181,181,181,1,paints/images/54.jpg,paints/images/235.jpg,182,kevin,1,2020-11-21_17h11.42.505,test3,2020.2.4,Win32,60,,,,,,,,,
,,,,z,0.941115,0,182,182,182,1,paints/images/225.jpg,paints/images/160.jpg,183,kevin,1,2020-11-21_17h11.42.505,test3,2020.2.4,Win32,60,,,,,,,,,
,,,,z,1.21044,0,183,183,183,1,paints/images/339.jpg,paints/images/59.jpg,184,kevin,1,2020-11-21_17h11.42.505,test3,2020.2.4,Win32,60,,,,,,,,,
,,,,m,1.541555,0,184,184,184,1,paints/images/409.jpg,paints/images/180.jpg,185,kevin,1,2020-11-21_17h11.42.505,test3,2020.2.4,Win32,60,,,,,,,,,
,,,,z,0.979995,0,185,185,185,1,paints/images/145.jpg,paints/images/115.jpg,186,kevin,1,2020-11-21_17h11.42.505,test3,2020.2.4,Win32,60,,,,,,,,,
,,,,z,0.68507,0,186,186,186,1,paints/images/147.jpg,paints/images/37.jpg,187,kevin,1,2020-11-21_17h11.42.505,test3,2020.2.4,Win32,60,,,,,,,,,
,,,,m,3.881575,0,187,187,187,1,paints/images/288.jpg,paints/images/64.jpg,188,kevin,1,2020-11-21_17h11.42.505,test3,2020.2.4,Win32,60,,,,,,,,,
,,,,z,0.60517,0,188,188,188,1,paints/images/235.jpg,paints/images/201.jpg,189,kevin,1,2020-11-21_17h11.42.505,test3,2020.2.4,Win32,60,,,,,,,,,
,,,,m,1.3217,0,189,189,189,1,paints/images/313.jpg,paints/images/2.jpg,190,kevin,1,2020-11-21_17h11.42.505,test3,2020.2.4,Win32,60,,,,,,,,,
,,,,z,0.77487,0,190,190,190,1,paints/images/329.jpg,paints/images/38.jpg,191,kevin,1,2020-11-21_17h11.42.505,test3,2020.2.4,Win32,60,,,,,,,,,
,,,,m,2.84415,0,191,191,191,1,paints/images/9.jpg,paints/images/241.jpg,192,kevin,1,2020-11-21_17h11.42.505,test3,2020.2.4,Win32,60,,,,,,,,,
,,,,z,1.3745,0,192,192,192,1,paints/images/364.jpg,paints/images/44.jpg,193,kevin,1,2020-11-21_17h11.42.505,test3,2020.2.4,Win32,60,,,,,,,,,
,,,,z,1.58847,0,193,193,193,1,paints/images/14.jpg,paints/images/109.jpg,194,kevin,1,2020-11-21_17h11.42.505,test3,2020.2.4,Win32,60,,,,,,,,,
,,,,z,1.124905,0,194,194,194,1,paints/images/0.jpg,paints/images/14.jpg,195,kevin,1,2020-11-21_17h11.42.505,test3,2020.2.4,Win32,60,,,,,,,,,
,,,,z,0.725665,0,195,195,195,1,paints/images/398.jpg,paints/images/247.jpg,196,kevin,1,2020-11-21_17h11.42.505,test3,2020.2.4,Win32,60,,,,,,,,,
,,,,z,0.84517,0,196,196,196,1,paints/images/377.jpg,paints/images/237.jpg,197,kevin,1,2020-11-21_17h11.42.505,test3,2020.2.4,Win32,60,,,,,,,,,
,,,,z,2.999505,0,197,197,197,1,paints/images/246.jpg,paints/images/184.jpg,198,kevin,1,2020-11-21_17h11.42.505,test3,2020.2.4,Win32,60,,,,,,,,,
,,,,m,1.716485,0,198,198,198,1,paints/images/299.jpg,paints/images/301.jpg,199,kevin,1,2020-11-21_17h11.42.505,test3,2020.2.4,Win32,60,,,,,,,,,
,,,,z,0.7233,0,199,199,199,1,paints/images/116.jpg,paints/images/148.jpg,200,kevin,1,2020-11-21_17h11.42.505,test3,2020.2.4,Win32,60,,,,,,,,,
,,,,z,1.739035,0,0,0,0,1,paints/images/267.jpg,paints/images/336.jpg,1,kevin,1,2020-11-21_17h11.42.505,test3,2020.2.4,Win32,60,space,181.675505,z,1.739035,0,0,0,0,1
,,,,z,0.85708,0,1,1,1,1,paints/images/6.jpg,paints/images/182.jpg,2,kevin,1,2020-11-21_17h11.42.505,test3,2020.2.4,Win32,60,,,z,0.85708,0,1,1,1,1
,,,,m,1.01033,0,2,2,2,1,paints/images/348.jpg,paints/images/105.jpg,3,kevin,1,2020-11-21_17h11.42.505,test3,2020.2.4,Win32,60,,,m,1.01033,0,2,2,2,1
,,,,m,1.205215,0,3,3,3,1,paints/images/404.jpg,paints/images/372.jpg,4,kevin,1,2020-11-21_17h11.42.505,test3,2020.2.4,Win32,60,,,m,1.205215,0,3,3,3,1
,,,,z,0.591015,0,4,4,4,1,paints/images/324.jpg,paints/images/134.jpg,5,kevin,1,2020-11-21_17h11.42.505,test3,2020.2.4,Win32,60,,,z,0.591015,0,4,4,4,1
,,,,m,0.580855,0,5,5,5,1,paints/images/278.jpg,paints/images/269.jpg,6,kevin,1,2020-11-21_17h11.42.505,test3,2020.2.4,Win32,60,,,m,0.580855,0,5,5,5,1
,,,,z,0.55635,0,6,6,6,1,paints/images/237.jpg,paints/images/375.jpg,7,kevin,1,2020-11-21_17h11.42.505,test3,2020.2.4,Win32,60,,,z,0.55635,0,6,6,6,1
,,,,z,0.97546,0,7,7,7,1,paints/images/109.jpg,paints/images/224.jpg,8,kevin,1,2020-11-21_17h11.42.505,test3,2020.2.4,Win32,60,,,z,0.97546,0,7,7,7,1
,,,,z,1.08024,0,8,8,8,1,paints/images/318.jpg,paints/images/127.jpg,9,kevin,1,2020-11-21_17h11.42.505,test3,2020.2.4,Win32,60,,,z,1.08024,0,8,8,8,1
,,,,z,0.85202,0,9,9,9,1,paints/images/120.jpg,paints/images/254.jpg,10,kevin,1,2020-11-21_17h11.42.505,test3,2020.2.4,Win32,60,,,z,0.85202,0,9,9,9,1
,,,,m,0.70927,0,10,10,10,1,paints/images/86.jpg,paints/images/67.jpg,11,kevin,1,2020-11-21_17h11.42.505,test3,2020.2.4,Win32,60,,,m,0.70927,0,10,10,10,1
,,,,m,0.639765,0,11,11,11,1,paints/images/302.jpg,paints/images/245.jpg,12,kevin,1,2020-11-21_17h11.42.505,test3,2020.2.4,Win32,60,,,m,0.639765,0,11,11,11,1
,,,,z,0.59551,0,12,12,12,1,paints/images/94.jpg,paints/images/242.jpg,13,kevin,1,2020-11-21_17h11.42.505,test3,2020.2.4,Win32,60,,,z,0.59551,0,12,12,12,1
,,,,z,0.61325,0,13,13,13,1,paints/images/295.jpg,paints/images/72.jpg,14,kevin,1,2020-11-21_17h11.42.505,test3,2020.2.4,Win32,60,,,z,0.61325,0,13,13,13,1
,,,,z,0.885395,0,14,14,14,1,paints/images/227.jpg,paints/images/175.jpg,15,kevin,1,2020-11-21_17h11.42.505,test3,2020.2.4,Win32,60,,,z,0.885395,0,14,14,14,1
,,,,z,0.7726,0,15,15,15,1,paints/images/26.jpg,paints/images/203.jpg,16,kevin,1,2020-11-21_17h11.42.505,test3,2020.2.4,Win32,60,,,z,0.7726,0,15,15,15,1
,,,,z,1.56579,0,16,16,16,1,paints/images/45.jpg,paints/images/272.jpg,17,kevin,1,2020-11-21_17h11.42.505,test3,2020.2.4,Win32,60,,,z,1.56579,0,16,16,16,1
,,,,m,0.65052,0,17,17,17,1,paints/images/410.jpg,paints/images/185.jpg,18,kevin,1,2020-11-21_17h11.42.505,test3,2020.2.4,Win32,60,,,m,0.65052,0,17,17,17,1
,,,,z,0.925125,0,18,18,18,1,paints/images/380.jpg,paints/images/0.jpg,19,kevin,1,2020-11-21_17h11.42.505,test3,2020.2.4,Win32,60,,,z,0.925125,0,18,18,18,1
,,,,m,26.16496,0,19,19,19,1,paints/images/370.jpg,paints/images/106.jpg,20,kevin,1,2020-11-21_17h11.42.505,test3,2020.2.4,Win32,60,,,m,26.16496,0,19,19,19,1
,,,,z,0.59114,0,20,20,20,1,paints/images/102.jpg,paints/images/309.jpg,21,kevin,1,2020-11-21_17h11.42.505,test3,2020.2.4,Win32,60,,,z,0.59114,0,20,20,20,1
,,,,z,0.772075,0,21,21,21,1,paints/images/167.jpg,paints/images/299.jpg,22,kevin,1,2020-11-21_17h11.42.505,test3,2020.2.4,Win32,60,,,z,0.772075,0,21,21,21,1
,,,,m,1.029675,0,22,22,22,1,paints/images/290.jpg,paints/images/192.jpg,23,kevin,1,2020-11-21_17h11.42.505,test3,2020.2.4,Win32,60,,,m,1.029675,0,22,22,22,1
,,,,m,0.98147,0,23,23,23,1,paints/images/82.jpg,paints/images/353.jpg,24,kevin,1,2020-11-21_17h11.42.505,test3,2020.2.4,Win32,60,,,m,0.98147,0,23,23,23,1
,,,,z,0.58795,0,24,24,24,1,paints/images/75.jpg,paints/images/404.jpg,25,kevin,1,2020-11-21_17h11.42.505,test3,2020.2.4,Win32,60,,,z,0.58795,0,24,24,24,1
,,,,z,1.10782,0,25,25,25,1,paints/images/117.jpg,paints/images/100.jpg,26,kevin,1,2020-11-21_17h11.42.505,test3,2020.2.4,Win32,60,,,z,1.10782,0,25,25,25,1
,,,,m,0.98491,0,26,26,26,1,paints/images/200.jpg,paints/images/378.jpg,27,kevin,1,2020-11-21_17h11.42.505,test3,2020.2.4,Win32,60,,,m,0.98491,0,26,26,26,1
,,,,z,0.91643,0,27,27,27,1,paints/images/371.jpg,paints/images/57.jpg,28,kevin,1,2020-11-21_17h11.42.505,test3,2020.2.4,Win32,60,,,z,0.91643,0,27,27,27,1
,,,,z,0.674875,0,28,28,28,1,paints/images/87.jpg,paints/images/302.jpg,29,kevin,1,2020-11-21_17h11.42.505,test3,2020.2.4,Win32,60,,,z,0.674875,0,28,28,28,1
,,,,z,0.943285,0,29,29,29,1,paints/images/208.jpg,paints/images/39.jpg,30,kevin,1,2020-11-21_17h11.42.505,test3,2020.2.4,Win32,60,,,z,0.943285,0,29,29,29,1
,,,,z,1.20731,0,30,30,30,1,paints/images/198.jpg,paints/images/200.jpg,31,kevin,1,2020-11-21_17h11.42.505,test3,2020.2.4,Win32,60,,,z,1.20731,0,30,30,30,1
,,,,z,1.606455,0,31,31,31,1,paints/images/43.jpg,paints/images/42.jpg,32,kevin,1,2020-11-21_17h11.42.505,test3,2020.2.4,Win32,60,,,z,1.606455,0,31,31,31,1
,,,,z,0.92762,0,32,32,32,1,paints/images/286.jpg,paints/images/376.jpg,33,kevin,1,2020-11-21_17h11.42.505,test3,2020.2.4,Win32,60,,,z,0.92762,0,32,32,32,1
,,,,z,0.70431,0,33,33,33,1,paints/images/275.jpg,paints/images/76.jpg,34,kevin,1,2020-11-21_17h11.42.505,test3,2020.2.4,Win32,60,,,z,0.70431,0,33,33,33,1
,,,,m,0.652915,0,34,34,34,1,paints/images/138.jpg,paints/images/129.jpg,35,kevin,1,2020-11-21_17h11.42.505,test3,2020.2.4,Win32,60,,,m,0.652915,0,34,34,34,1
,,,,z,0.79164,0,35,35,35,1,paints/images/386.jpg,paints/images/366.jpg,36,kevin,1,2020-11-21_17h11.42.505,test3,2020.2.4,Win32,60,,,z,0.79164,0,35,35,35,1
,,,,z,0.551705,0,36,36,36,1,paints/images/232.jpg,paints/images/215.jpg,37,kevin,1,2020-11-21_17h11.42.505,test3,2020.2.4,Win32,60,,,z,0.551705,0,36,36,36,1
,,,,m,0.640405,0,37,37,37,1,paints/images/122.jpg,paints/images/199.jpg,38,kevin,1,2020-11-21_17h11.42.505,test3,2020.2.4,Win32,60,,,m,0.640405,0,37,37,37,1
,,,,m,1.832265,0,38,38,38,1,paints/images/388.jpg,paints/images/169.jpg,39,kevin,1,2020-11-21_17h11.42.505,test3,2020.2.4,Win32,60,,,m,1.832265,0,38,38,38,1
,,,,z,0.61025,0,39,39,39,1,paints/images/399.jpg,paints/images/229.jpg,40,kevin,1,2020-11-21_17h11.42.505,test3,2020.2.4,Win32,60,,,z,0.61025,0,39,39,39,1
,,,,m,0.7015,0,40,40,40,1,paints/images/300.jpg,paints/images/1.jpg,41,kevin,1,2020-11-21_17h11.42.505,test3,2020.2.4,Win32,60,,,m,0.7015,0,40,40,40,1
,,,,m,0.86312,0,41,41,41,1,paints/images/195.jpg,paints/images/399.jpg,42,kevin,1,2020-11-21_17h11.42.505,test3,2020.2.4,Win32,60,,,m,0.86312,0,41,41,41,1
,,,,z,0.649635,0,42,42,42,1,paints/images/281.jpg,paints/images/277.jpg,43,kevin,1,2020-11-21_17h11.42.505,test3,2020.2.4,Win32,60,,,z,0.649635,0,42,42,42,1
,,,,z,0.76813,0,43,43,43,1,paints/images/103.jpg,paints/images/288.jpg,44,kevin,1,2020-11-21_17h11.42.505,test3,2020.2.4,Win32,60,,,z,0.76813,0,43,43,43,1
,,,,z,0.78655,0,44,44,44,1,paints/images/297.jpg,paints/images/222.jpg,45,kevin,1,2020-11-21_17h11.42.505,test3,2020.2.4,Win32,60,,,z,0.78655,0,44,44,44,1
,,,,m,1.551995,0,45,45,45,1,paints/images/394.jpg,paints/images/258.jpg,46,kevin,1,2020-11-21_17h11.42.505,test3,2020.2.4,Win32,60,,,m,1.551995,0,45,45,45,1
,,,,z,0.758905,0,46,46,46,1,paints/images/73.jpg,paints/images/49.jpg,47,kevin,1,2020-11-21_17h11.42.505,test3,2020.2.4,Win32,60,,,z,0.758905,0,46,46,46,1
,,,,z,0.784025,0,47,47,47,1,paints/images/112.jpg,paints/images/80.jpg,48,kevin,1,2020-11-21_17h11.42.505,test3,2020.2.4,Win32,60,,,z,0.784025,0,47,47,47,1
,,,,z,0.64329,0,48,48,48,1,paints/images/245.jpg,paints/images/358.jpg,49,kevin,1,2020-11-21_17h11.42.505,test3,2020.2.4,Win32,60,,,z,0.64329,0,48,48,48,1
,,,,z,0.63571,0,49,49,49,1,paints/images/347.jpg,paints/images/143.jpg,50,kevin,1,2020-11-21_17h11.42.505,test3,2020.2.4,Win32,60,,,z,0.63571,0,49,49,49,1
,,,,z,0.601965,0,50,50,50,1,paints/images/352.jpg,paints/images/145.jpg,51,kevin,1,2020-11-21_17h11.42.505,test3,2020.2.4,Win32,60,,,z,0.601965,0,50,50,50,1
,,,,m,0.773185,0,51,51,51,1,paints/images/69.jpg,paints/images/162.jpg,52,kevin,1,2020-11-21_17h11.42.505,test3,2020.2.4,Win32,60,,,m,0.773185,0,51,51,51,1
,,,,z,0.88607,0,52,52,52,1,paints/images/381.jpg,paints/images/202.jpg,53,kevin,1,2020-11-21_17h11.42.505,test3,2020.2.4,Win32,60,,,z,0.88607,0,52,52,52,1
,,,,z,0.6531,0,53,53,53,1,paints/images/361.jpg,paints/images/340.jpg,54,kevin,1,2020-11-21_17h11.42.505,test3,2020.2.4,Win32,60,,,z,0.6531,0,53,53,53,1
,,,,z,0.921165,0,54,54,54,1,paints/images/217.jpg,paints/images/9.jpg,55,kevin,1,2020-11-21_17h11.42.505,test3,2020.2.4,Win32,60,,,z,0.921165,0,54,54,54,1
,,,,z,0.66046,0,55,55,55,1,paints/images/8.jpg,paints/images/409.jpg,56,kevin,1,2020-11-21_17h11.42.505,test3,2020.2.4,Win32,60,,,z,0.66046,0,55,55,55,1
,,,,m,1.14522,0,56,56,56,1,paints/images/59.jpg,paints/images/33.jpg,57,kevin,1,2020-11-21_17h11.42.505,test3,2020.2.4,Win32,60,,,m,1.14522,0,56,56,56,1
,,,,z,0.45001,0,57,57,57,1,paints/images/21.jpg,paints/images/311.jpg,58,kevin,1,2020-11-21_17h11.42.505,test3,2020.2.4,Win32,60,,,z,0.45001,0,57,57,57,1
,,,,m,0.94708,0,58,58,58,1,paints/images/408.jpg,paints/images/31.jpg,59,kevin,1,2020-11-21_17h11.42.505,test3,2020.2.4,Win32,60,,,m,0.94708,0,58,58,58,1
,,,,z,0.56457,0,59,59,59,1,paints/images/98.jpg,paints/images/3.jpg,60,kevin,1,2020-11-21_17h11.42.505,test3,2020.2.4,Win32,60,,,z,0.56457,0,59,59,59,1
,,,,z,0.83684,0,60,60,60,1,paints/images/336.jpg,paints/images/138.jpg,61,kevin,1,2020-11-21_17h11.42.505,test3,2020.2.4,Win32,60,,,z,0.83684,0,60,60,60,1
,,,,z,0.530255,0,61,61,61,1,paints/images/186.jpg,paints/images/395.jpg,62,kevin,1,2020-11-21_17h11.42.505,test3,2020.2.4,Win32,60,,,z,0.530255,0,61,61,61,1
,,,,z,0.572485,0,62,62,62,1,paints/images/76.jpg,paints/images/405.jpg,63,kevin,1,2020-11-21_17h11.42.505,test3,2020.2.4,Win32,60,,,z,0.572485,0,62,62,62,1
,,,,z,0.506885,0,63,63,63,1,paints/images/171.jpg,paints/images/381.jpg,64,kevin,1,2020-11-21_17h11.42.505,test3,2020.2.4,Win32,60,,,z,0.506885,0,63,63,63,1
,,,,z,4.904825,0,64,64,64,1,paints/images/220.jpg,paints/images/70.jpg,65,kevin,1,2020-11-21_17h11.42.505,test3,2020.2.4,Win32,60,,,z,4.904825,0,64,64,64,1
,,,,m,1.024805,0,65,65,65,1,paints/images/337.jpg,paints/images/339.jpg,66,kevin,1,2020-11-21_17h11.42.505,test3,2020.2.4,Win32,60,,,m,1.024805,0,65,65,65,1
,,,,z,1.13733,0,66,66,66,1,paints/images/258.jpg,paints/images/85.jpg,67,kevin,1,2020-11-21_17h11.42.505,test3,2020.2.4,Win32,60,,,z,1.13733,0,66,66,66,1
,,,,z,0.79013,0,67,67,67,1,paints/images/273.jpg,paints/images/113.jpg,68,kevin,1,2020-11-21_17h11.42.505,test3,2020.2.4,Win32,60,,,z,0.79013,0,67,67,67,1
,,,,z,1.1048,0,68,68,68,1,paints/images/353.jpg,paints/images/368.jpg,69,kevin,1,2020-11-21_17h11.42.505,test3,2020.2.4,Win32,60,,,z,1.1048,0,68,68,68,1
,,,,z,0.59123,0,69,69,69,1,paints/images/187.jpg,paints/images/86.jpg,70,kevin,1,2020-11-21_17h11.42.505,test3,2020.2.4,Win32,60,,,z,0.59123,0,69,69,69,1
,,,,z,0.53239,0,70,70,70,1,paints/images/176.jpg,paints/images/193.jpg,71,kevin,1,2020-11-21_17h11.42.505,test3,2020.2.4,Win32,60,,,z,0.53239,0,70,70,70,1
,,,,z,1.179,0,71,71,71,1,paints/images/175.jpg,paints/images/194.jpg,72,kevin,1,2020-11-21_17h11.42.505,test3,2020.2.4,Win32,60,,,z,1.179,0,71,71,71,1
,,,,m,1.1012,0,72,72,72,1,paints/images/407.jpg,paints/images/81.jpg,73,kevin,1,2020-11-21_17h11.42.505,test3,2020.2.4,Win32,60,,,m,1.1012,0,72,72,72,1
,,,,m,0.86639,0,73,73,73,1,paints/images/276.jpg,paints/images/77.jpg,74,kevin,1,2020-11-21_17h11.42.505,test3,2020.2.4,Win32,60,,,m,0.86639,0,73,73,73,1
,,,,z,0.580015,0,74,74,74,1,paints/images/291.jpg,paints/images/314.jpg,75,kevin,1,2020-11-21_17h11.42.505,test3,2020.2.4,Win32,60,,,z,0.580015,0,74,74,74,1
,,,,m,0.842725,0,75,75,75,1,paints/images/127.jpg,paints/images/36.jpg,76,kevin,1,2020-11-21_17h11.42.505,test3,2020.2.4,Win32,60,,,m,0.842725,0,75,75,75,1
,,,,m,0.98439,0,76,76,76,1,paints/images/372.jpg,paints/images/161.jpg,77,kevin,1,2020-11-21_17h11.42.505,test3,2020.2.4,Win32,60,,,m,0.98439,0,76,76,76,1
,,,,z,0.624435,0,77,77,77,1,paints/images/283.jpg,paints/images/350.jpg,78,kevin,1,2020-11-21_17h11.42.505,test3,2020.2.4,Win32,60,,,z,0.624435,0,77,77,77,1
,,,,z,0.567925,0,78,78,78,1,paints/images/106.jpg,paints/images/68.jpg,79,kevin,1,2020-11-21_17h11.42.505,test3,2020.2.4,Win32,60,,,z,0.567925,0,78,78,78,1
,,,,z,0.774835,0,79,79,79,1,paints/images/224.jpg,paints/images/266.jpg,80,kevin,1,2020-11-21_17h11.42.505,test3,2020.2.4,Win32,60,,,z,0.774835,0,79,79,79,1
,,,,z,0.59576,0,80,80,80,1,paints/images/375.jpg,paints/images/264.jpg,81,kevin,1,2020-11-21_17h11.42.505,test3,2020.2.4,Win32,60,,,z,0.59576,0,80,80,80,1
,,,,m,0.627295,0,81,81,81,1,paints/images/47.jpg,paints/images/87.jpg,82,kevin,1,2020-11-21_17h11.42.505,test3,2020.2.4,Win32,60,,,m,0.627295,0,81,81,81,1
,,,,z,1.10953,0,82,82,82,1,paints/images/38.jpg,paints/images/298.jpg,83,kevin,1,2020-11-21_17h11.42.505,test3,2020.2.4,Win32,60,,,z,1.10953,0,82,82,82,1
,,,,z,0.62538,0,83,83,83,1,paints/images/161.jpg,paints/images/28.jpg,84,kevin,1,2020-11-21_17h11.42.505,test3,2020.2.4,Win32,60,,,z,0.62538,0,83,83,83,1
,,,,m,0.61686,0,84,84,84,1,paints/images/298.jpg,paints/images/345.jpg,85,kevin,1,2020-11-21_17h11.42.505,test3,2020.2.4,Win32,60,,,m,0.61686,0,84,84,84,1
,,,,z,0.554495,0,85,85,85,1,paints/images/163.jpg,paints/images/205.jpg,86,kevin,1,2020-11-21_17h11.42.505,test3,2020.2.4,Win32,60,,,z,0.554495,0,85,85,85,1
,,,,z,0.68958,0,86,86,86,1,paints/images/121.jpg,paints/images/252.jpg,87,kevin,1,2020-11-21_17h11.42.505,test3,2020.2.4,Win32,60,,,z,0.68958,0,86,86,86,1
,,,,m,1.89056,0,87,87,87,1,paints/images/247.jpg,paints/images/95.jpg,88,kevin,1,2020-11-21_17h11.42.505,test3,2020.2.4,Win32,60,,,m,1.89056,0,87,87,87,1
,,,,z,0.56205,0,88,88,88,1,paints/images/321.jpg,paints/images/150.jpg,89,kevin,1,2020-11-21_17h11.42.505,test3,2020.2.4,Win32,60,,,z,0.56205,0,88,88,88,1
,,,,z,0.99583,0,89,89,89,1,paints/images/46.jpg,paints/images/226.jpg,90,kevin,1,2020-11-21_17h11.42.505,test3,2020.2.4,Win32,60,,,z,0.99583,0,89,89,89,1
,,,,m,1.126935,0,90,90,90,1,paints/images/154.jpg,paints/images/263.jpg,91,kevin,1,2020-11-21_17h11.42.505,test3,2020.2.4,Win32,60,,,m,1.126935,0,90,90,90,1
,,,,z,1.33019,0,91,91,91,1,paints/images/191.jpg,paints/images/158.jpg,92,kevin,1,2020-11-21_17h11.42.505,test3,2020.2.4,Win32,60,,,z,1.33019,0,91,91,91,1
,,,,m,0.901565,0,92,92,92,1,paints/images/49.jpg,paints/images/227.jpg,93,kevin,1,2020-11-21_17h11.42.505,test3,2020.2.4,Win32,60,,,m,0.901565,0,92,92,92,1
,,,,m,2.233585,0,93,93,93,1,paints/images/124.jpg,paints/images/89.jpg,94,kevin,1,2020-11-21_17h11.42.505,test3,2020.2.4,Win32,60,,,m,2.233585,0,93,93,93,1
,,,,z,0.53819,0,94,94,94,1,paints/images/390.jpg,paints/images/43.jpg,95,kevin,1,2020-11-21_17h11.42.505,test3,2020.2.4,Win32,60,,,z,0.53819,0,94,94,94,1
,,,,z,1.064375,0,95,95,95,1,paints/images/42.jpg,paints/images/268.jpg,96,kevin,1,2020-11-21_17h11.42.505,test3,2020.2.4,Win32,60,,,z,1.064375,0,95,95,95,1
,,,,z,0.661635,0,96,96,96,1,paints/images/113.jpg,paints/images/386.jpg,97,kevin,1,2020-11-21_17h11.42.505,test3,2020.2.4,Win32,60,,,z,0.661635,0,96,96,96,1
,,,,z,0.680655,0,97,97,97,1,paints/images/287.jpg,paints/images/307.jpg,98,kevin,1,2020-11-21_17h11.42.505,test3,2020.2.4,Win32,60,,,z,0.680655,0,97,97,97,1
,,,,z,1.20951,0,98,98,98,1,paints/images/134.jpg,paints/images/300.jpg,99,kevin,1,2020-11-21_17h11.42.505,test3,2020.2.4,Win32,60,,,z,1.20951,0,98,98,98,1
,,,,m,0.60353,0,99,99,99,1,paints/images/60.jpg,paints/images/206.jpg,100,kevin,1,2020-11-21_17h11.42.505,test3,2020.2.4,Win32,60,,,m,0.60353,0,99,99,99,1
,,,,m,1.134365,0,100,100,100,1,paints/images/384.jpg,paints/images/335.jpg,101,kevin,1,2020-11-21_17h11.42.505,test3,2020.2.4,Win32,60,,,m,1.134365,0,100,100,100,1
,,,,z,0.513835,0,101,101,101,1,paints/images/326.jpg,paints/images/139.jpg,102,kevin,1,2020-11-21_17h11.42.505,test3,2020.2.4,Win32,60,,,z,0.513835,0,101,101,101,1
,,,,m,1.061205,0,102,102,102,1,paints/images/166.jpg,paints/images/374.jpg,103,kevin,1,2020-11-21_17h11.42.505,test3,2020.2.4,Win32,60,,,m,1.061205,0,102,102,102,1
,,,,z,2.18998,0,103,103,103,1,paints/images/360.jpg,paints/images/10.jpg,104,kevin,1,2020-11-21_17h11.42.505,test3,2020.2.4,Win32,60,,,z,2.18998,0,103,103,103,1
,,,,z,0.51405,0,104,104,104,1,paints/images/158.jpg,paints/images/149.jpg,105,kevin,1,2020-11-21_17h11.42.505,test3,2020.2.4,Win32,60,,,z,0.51405,0,104,104,104,1
,,,,z,0.723575,0,105,105,105,1,paints/images/159.jpg,paints/images/362.jpg,106,kevin,1,2020-11-21_17h11.42.505,test3,2020.2.4,Win32,60,,,z,0.723575,0,105,105,105,1
,,,,z,0.576825,0,106,106,106,1,paints/images/214.jpg,paints/images/116.jpg,107,kevin,1,2020-11-21_17h11.42.505,test3,2020.2.4,Win32,60,,,z,0.576825,0,106,106,106,1
,,,,m,0.79889,0,107,107,107,1,paints/images/256.jpg,paints/images/323.jpg,108,kevin,1,2020-11-21_17h11.42.505,test3,2020.2.4,Win32,60,,,m,0.79889,0,107,107,107,1
,,,,z,0.72443,0,108,108,108,1,paints/images/36.jpg,paints/images/157.jpg,109,kevin,1,2020-11-21_17h11.42.505,test3,2020.2.4,Win32,60,,,z,0.72443,0,108,108,108,1
,,,,z,0.79037,0,109,109,109,1,paints/images/101.jpg,paints/images/126.jpg,110,kevin,1,2020-11-21_17h11.42.505,test3,2020.2.4,Win32,60,,,z,0.79037,0,109,109,109,1
,,,,z,0.657955,0,110,110,110,1,paints/images/265.jpg,paints/images/35.jpg,111,kevin,1,2020-11-21_17h11.42.505,test3,2020.2.4,Win32,60,,,z,0.657955,0,110,110,110,1
,,,,m,0.88428,0,111,111,111,1,paints/images/392.jpg,paints/images/233.jpg,112,kevin,1,2020-11-21_17h11.42.505,test3,2020.2.4,Win32,60,,,m,0.88428,0,111,111,111,1
,,,,z,0.6652,0,112,112,112,1,paints/images/251.jpg,paints/images/12.jpg,113,kevin,1,2020-11-21_17h11.42.505,test3,2020.2.4,Win32,60,,,z,0.6652,0,112,112,112,1
,,,,m,0.94675,0,113,113,113,1,paints/images/12.jpg,paints/images/144.jpg,114,kevin,1,2020-11-21_17h11.42.505,test3,2020.2.4,Win32,60,,,m,0.94675,0,113,113,113,1
,,,,z,1.180245,0,114,114,114,1,paints/images/133.jpg,paints/images/331.jpg,115,kevin,1,2020-11-21_17h11.42.505,test3,2020.2.4,Win32,60,,,z,1.180245,0,114,114,114,1
,,,,z,0.54414,0,115,115,115,1,paints/images/383.jpg,paints/images/99.jpg,116,kevin,1,2020-11-21_17h11.42.505,test3,2020.2.4,Win32,60,,,z,0.54414,0,115,115,115,1
,,,,z,1.409045,0,116,116,116,1,paints/images/211.jpg,paints/images/303.jpg,117,kevin,1,2020-11-21_17h11.42.505,test3,2020.2.4,Win32,60,,,z,1.409045,0,116,116,116,1
,,,,m,0.970995,0,117,117,117,1,paints/images/201.jpg,paints/images/238.jpg,118,kevin,1,2020-11-21_17h11.42.505,test3,2020.2.4,Win32,60,,,m,0.970995,0,117,117,117,1
,,,,m,1.07189,0,118,118,118,1,paints/images/205.jpg,paints/images/102.jpg,119,kevin,1,2020-11-21_17h11.42.505,test3,2020.2.4,Win32,60,,,m,1.07189,0,118,118,118,1
,,,,m,1.20345,0,119,119,119,1,paints/images/270.jpg,paints/images/322.jpg,120,kevin,1,2020-11-21_17h11.42.505,test3,2020.2.4,Win32,60,,,m,1.20345,0,119,119,119,1
,,,,z,0.54347,0,120,120,120,1,paints/images/341.jpg,paints/images/248.jpg,121,kevin,1,2020-11-21_17h11.42.505,test3,2020.2.4,Win32,60,,,z,0.54347,0,120,120,120,1
,,,,m,0.840405,0,121,121,121,1,paints/images/141.jpg,paints/images/94.jpg,122,kevin,1,2020-11-21_17h11.42.505,test3,2020.2.4,Win32,60,,,m,0.840405,0,121,121,121,1
,,,,z,1.510935,0,122,122,122,1,paints/images/83.jpg,paints/images/327.jpg,123,kevin,1,2020-11-21_17h11.42.505,test3,2020.2.4,Win32,60,,,z,1.510935,0,122,122,122,1
,,,,z,0.550735,0,123,123,123,1,paints/images/327.jpg,paints/images/110.jpg,124,kevin,1,2020-11-21_17h11.42.505,test3,2020.2.4,Win32,60,,,z,0.550735,0,123,123,123,1
,,,,z,0.53686,0,124,124,124,1,paints/images/157.jpg,paints/images/79.jpg,125,kevin,1,2020-11-21_17h11.42.505,test3,2020.2.4,Win32,60,,,z,0.53686,0,124,124,124,1
,,,,z,0.86484,0,125,125,125,1,paints/images/193.jpg,paints/images/74.jpg,126,kevin,1,2020-11-21_17h11.42.505,test3,2020.2.4,Win32,60,,,z,0.86484,0,125,125,125,1
,,,,z,0.918965,0,126,126,126,1,paints/images/140.jpg,paints/images/292.jpg,127,kevin,1,2020-11-21_17h11.42.505,test3,2020.2.4,Win32,60,,,z,0.918965,0,126,126,126,1
,,,,z,0.575345,0,127,127,127,1,paints/images/107.jpg,paints/images/92.jpg,128,kevin,1,2020-11-21_17h11.42.505,test3,2020.2.4,Win32,60,,,z,0.575345,0,127,127,127,1
,,,,m,0.693615,0,128,128,128,1,paints/images/7.jpg,paints/images/56.jpg,129,kevin,1,2020-11-21_17h11.42.505,test3,2020.2.4,Win32,60,,,m,0.693615,0,128,128,128,1
,,,,z,0.59375,0,129,129,129,1,paints/images/177.jpg,paints/images/141.jpg,130,kevin,1,2020-11-21_17h11.42.505,test3,2020.2.4,Win32,60,,,z,0.59375,0,129,129,129,1
,,,,m,1.203335,0,130,130,130,1,paints/images/244.jpg,paints/images/250.jpg,131,kevin,1,2020-11-21_17h11.42.505,test3,2020.2.4,Win32,60,,,m,1.203335,0,130,130,130,1
,,,,z,0.56735,0,131,131,131,1,paints/images/253.jpg,paints/images/8.jpg,132,kevin,1,2020-11-21_17h11.42.505,test3,2020.2.4,Win32,60,,,z,0.56735,0,131,131,131,1
,,,,z,0.702855,0,132,132,132,1,paints/images/136.jpg,paints/images/108.jpg,133,kevin,1,2020-11-21_17h11.42.505,test3,2020.2.4,Win32,60,,,z,0.702855,0,132,132,132,1
,,,,z,0.829285,0,133,133,133,1,paints/images/165.jpg,paints/images/147.jpg,134,kevin,1,2020-11-21_17h11.42.505,test3,2020.2.4,Win32,60,,,z,0.829285,0,133,133,133,1
,,,,z,1.35203,0,134,134,134,1,paints/images/39.jpg,paints/images/387.jpg,135,kevin,1,2020-11-21_17h11.42.505,test3,2020.2.4,Win32,60,,,z,1.35203,0,134,134,134,1
,,,,z,0.51193,0,135,135,135,1,paints/images/271.jpg,paints/images/125.jpg,136,kevin,1,2020-11-21_17h11.42.505,test3,2020.2.4,Win32,60,,,z,0.51193,0,135,135,135,1
,,,,m,0.743875,0,136,136,136,1,paints/images/90.jpg,paints/images/130.jpg,137,kevin,1,2020-11-21_17h11.42.505,test3,2020.2.4,Win32,60,,,m,0.743875,0,136,136,136,1
,,,,z,0.51531,0,137,137,137,1,paints/images/362.jpg,paints/images/60.jpg,138,kevin,1,2020-11-21_17h11.42.505,test3,2020.2.4,Win32,60,,,z,0.51531,0,137,137,137,1
,,,,z,0.58901,0,138,138,138,1,paints/images/218.jpg,paints/images/153.jpg,139,kevin,1,2020-11-21_17h11.42.505,test3,2020.2.4,Win32,60,,,z,0.58901,0,138,138,138,1
,,,,z,0.505315,0,139,139,139,1,paints/images/18.jpg,paints/images/324.jpg,140,kevin,1,2020-11-21_17h11.42.505,test3,2020.2.4,Win32,60,,,z,0.505315,0,139,139,139,1
,,,,z,1.16544,0,140,140,140,1,paints/images/29.jpg,paints/images/120.jpg,141,kevin,1,2020-11-21_17h11.42.505,test3,2020.2.4,Win32,60,,,z,1.16544,0,140,140,140,1
,,,,z,0.5068,0,141,141,141,1,paints/images/155.jpg,paints/images/142.jpg,142,kevin,1,2020-11-21_17h11.42.505,test3,2020.2.4,Win32,60,,,z,0.5068,0,141,141,141,1
,,,,m,0.857085,0,142,142,142,1,paints/images/148.jpg,paints/images/396.jpg,143,kevin,1,2020-11-21_17h11.42.505,test3,2020.2.4,Win32,60,,,m,0.857085,0,142,142,142,1
,,,,z,0.649635,0,143,143,143,1,paints/images/373.jpg,paints/images/218.jpg,144,kevin,1,2020-11-21_17h11.42.505,test3,2020.2.4,Win32,60,,,z,0.649635,0,143,143,143,1
,,,,z,0.637415,0,144,144,144,1,paints/images/231.jpg,paints/images/73.jpg,145,kevin,1,2020-11-21_17h11.42.505,test3,2020.2.4,Win32,60,,,z,0.637415,0,144,144,144,1
,,,,m,0.97412,0,145,145,145,1,paints/images/240.jpg,paints/images/356.jpg,146,kevin,1,2020-11-21_17h11.42.505,test3,2020.2.4,Win32,60,,,m,0.97412,0,145,145,145,1
,,,,m,0.67534,0,146,146,146,1,paints/images/332.jpg,paints/images/347.jpg,147,kevin,1,2020-11-21_17h11.42.505,test3,2020.2.4,Win32,60,,,m,0.67534,0,146,146,146,1
,,,,m,1.269045,0,147,147,147,1,paints/images/254.jpg,paints/images/310.jpg,148,kevin,1,2020-11-21_17h11.42.505,test3,2020.2.4,Win32,60,,,m,1.269045,0,147,147,147,1
,,,,z,1.48147,0,148,148,148,1,paints/images/405.jpg,paints/images/385.jpg,149,kevin,1,2020-11-21_17h11.42.505,test3,2020.2.4,Win32,60,,,z,1.48147,0,148,148,148,1
,,,,z,0.537955,0,149,149,149,1,paints/images/345.jpg,paints/images/274.jpg,150,kevin,1,2020-11-21_17h11.42.505,test3,2020.2.4,Win32,60,,,z,0.537955,0,149,149,149,1
,,,,z,0.625005,0,150,150,150,1,paints/images/363.jpg,paints/images/18.jpg,151,kevin,1,2020-11-21_17h11.42.505,test3,2020.2.4,Win32,60,,,z,0.625005,0,150,150,150,1
,,,,m,0.69753,0,151,151,151,1,paints/images/37.jpg,paints/images/53.jpg,152,kevin,1,2020-11-21_17h11.42.505,test3,2020.2.4,Win32,60,,,m,0.69753,0,151,151,151,1
,,,,z,0.605035,0,152,152,152,1,paints/images/315.jpg,paints/images/319.jpg,153,kevin,1,2020-11-21_17h11.42.505,test3,2020.2.4,Win32,60,,,z,0.605035,0,152,152,152,1
,,,,z,0.823605,0,153,153,153,1,paints/images/74.jpg,paints/images/403.jpg,154,kevin,1,2020-11-21_17h11.42.505,test3,2020.2.4,Win32,60,,,z,0.823605,0,153,153,153,1
,,,,z,0.70141,0,154,154,154,1,paints/images/156.jpg,paints/images/246.jpg,155,kevin,1,2020-11-21_17h11.42.505,test3,2020.2.4,Win32,60,,,z,0.70141,0,154,154,154,1
,,,,z,0.52614,0,155,155,155,1,paints/images/285.jpg,paints/images/270.jpg,156,kevin,1,2020-11-21_17h11.42.505,test3,2020.2.4,Win32,60,,,z,0.52614,0,155,155,155,1
,,,,m,0.67706,0,156,156,156,1,paints/images/17.jpg,paints/images/398.jpg,157,kevin,1,2020-11-21_17h11.42.505,test3,2020.2.4,Win32,60,,,m,0.67706,0,156,156,156,1
,,,,z,0.79098,0,157,157,157,1,paints/images/335.jpg,paints/images/27.jpg,158,kevin,1,2020-11-21_17h11.42.505,test3,2020.2.4,Win32,60,,,z,0.79098,0,157,157,157,1
,,,,z,0.85619,0,158,158,158,1,paints/images/350.jpg,paints/images/156.jpg,159,kevin,1,2020-11-21_17h11.42.505,test3,2020.2.4,Win32,60,,,z,0.85619,0,158,158,158,1
,,,,m,0.94131,0,159,159,159,1,paints/images/31.jpg,paints/images/231.jpg,160,kevin,1,2020-11-21_17h11.42.505,test3,2020.2.4,Win32,60,,,m,0.94131,0,159,159,159,1
,,,,z,0.668945,0,160,160,160,1,paints/images/114.jpg,paints/images/333.jpg,161,kevin,1,2020-11-21_17h11.42.505,test3,2020.2.4,Win32,60,,,z,0.668945,0,160,160,160,1
,,,,z,0.676955,0,161,161,161,1,paints/images/79.jpg,paints/images/408.jpg,162,kevin,1,2020-11-21_17h11.42.505,test3,2020.2.4,Win32,60,,,z,0.676955,0,161,161,161,1
,,,,m,0.547745,0,162,162,162,1,paints/images/338.jpg,paints/images/279.jpg,163,kevin,1,2020-11-21_17h11.42.505,test3,2020.2.4,Win32,60,,,m,0.547745,0,162,162,162,1
,,,,z,1.0987,0,163,163,163,1,paints/images/354.jpg,paints/images/304.jpg,164,kevin,1,2020-11-21_17h11.42.505,test3,2020.2.4,Win32,60,,,z,1.0987,0,163,163,163,1
,,,,z,0.83806,0,164,164,164,1,paints/images/128.jpg,paints/images/276.jpg,165,kevin,1,2020-11-21_17h11.42.505,test3,2020.2.4,Win32,60,,,z,0.83806,0,164,164,164,1
,,,,z,1.257915,0,165,165,165,1,paints/images/35.jpg,paints/images/188.jpg,166,kevin,1,2020-11-21_17h11.42.505,test3,2020.2.4,Win32,60,,,z,1.257915,0,165,165,165,1
,,,,z,0.6667,0,166,166,166,1,paints/images/16.jpg,paints/images/29.jpg,167,kevin,1,2020-11-21_17h11.42.505,test3,2020.2.4,Win32,60,,,z,0.6667,0,166,166,166,1
,,,,m,0.71851,0,167,167,167,1,paints/images/119.jpg,paints/images/251.jpg,168,kevin,1,2020-11-21_17h11.42.505,test3,2020.2.4,Win32,60,,,m,0.71851,0,167,167,167,1
,,,,z,0.653215,0,168,168,168,1,paints/images/207.jpg,paints/images/65.jpg,169,kevin,1,2020-11-21_17h11.42.505,test3,2020.2.4,Win32,60,,,z,0.653215,0,168,168,168,1
,,,,m,0.69473,0,169,169,169,1,paints/images/173.jpg,paints/images/373.jpg,170,kevin,1,2020-11-21_17h11.42.505,test3,2020.2.4,Win32,60,,,m,0.69473,0,169,169,169,1
,,,,z,0.75905,0,170,170,170,1,paints/images/135.jpg,paints/images/196.jpg,171,kevin,1,2020-11-21_17h11.42.505,test3,2020.2.4,Win32,60,,,z,0.75905,0,170,170,170,1
,,,,m,1.394715,0,171,171,171,1,paints/images/55.jpg,paints/images/316.jpg,172,kevin,1,2020-11-21_17h11.42.505,test3,2020.2.4,Win32,60,,,m,1.394715,0,171,171,171,1
,,,,z,0.76553,0,172,172,172,1,paints/images/343.jpg,paints/images/383.jpg,173,kevin,1,2020-11-21_17h11.42.505,test3,2020.2.4,Win32,60,,,z,0.76553,0,172,172,172,1
,,,,m,1.435945,0,173,173,173,1,paints/images/203.jpg,paints/images/186.jpg,174,kevin,1,2020-11-21_17h11.42.505,test3,2020.2.4,Win32,60,,,m,1.435945,0,173,173,173,1
,,,,z,0.66961,0,174,174,174,1,paints/images/123.jpg,paints/images/128.jpg,175,kevin,1,2020-11-21_17h11.42.505,test3,2020.2.4,Win32,60,,,z,0.66961,0,174,174,174,1
,,,,z,0.78587,0,175,175,175,1,paints/images/391.jpg,paints/images/208.jpg,176,kevin,1,2020-11-21_17h11.42.505,test3,2020.2.4,Win32,60,,,z,0.78587,0,175,175,175,1
,,,,m,1.071435,0,176,176,176,1,paints/images/105.jpg,paints/images/313.jpg,177,kevin,1,2020-11-21_17h11.42.505,test3,2020.2.4,Win32,60,,,m,1.071435,0,176,176,176,1
,,,,z,0.551185,0,177,177,177,1,paints/images/184.jpg,paints/images/69.jpg,178,kevin,1,2020-11-21_17h11.42.505,test3,2020.2.4,Win32,60,,,z,0.551185,0,177,177,177,1
,,,,m,1.42147,0,178,178,178,1,paints/images/63.jpg,paints/images/191.jpg,179,kevin,1,2020-11-21_17h11.42.505,test3,2020.2.4,Win32,60,,,m,1.42147,0,178,178,178,1
,,,,m,1.102345,0,179,179,179,1,paints/images/85.jpg,paints/images/390.jpg,180,kevin,1,2020-11-21_17h11.42.505,test3,2020.2.4,Win32,60,,,m,1.102345,0,179,179,179,1
,,,,z,1.466545,0,180,180,180,1,paints/images/179.jpg,paints/images/177.jpg,181,kevin,1,2020-11-21_17h11.42.505,test3,2020.2.4,Win32,60,,,z,1.466545,0,180,180,180,1
,,,,z,1.24363,0,181,181,181,1,paints/images/320.jpg,paints/images/171.jpg,182,kevin,1,2020-11-21_17h11.42.505,test3,2020.2.4,Win32,60,,,z,1.24363,0,181,181,181,1
,,,,z,0.64071,0,182,182,182,1,paints/images/77.jpg,paints/images/406.jpg,183,kevin,1,2020-11-21_17h11.42.505,test3,2020.2.4,Win32,60,,,z,0.64071,0,182,182,182,1
,,,,m,0.816075,0,183,183,183,1,paints/images/66.jpg,paints/images/255.jpg,184,kevin,1,2020-11-21_17h11.42.505,test3,2020.2.4,Win32,60,,,m,0.816075,0,183,183,183,1
,,,,z,56.78746,0,184,184,184,1,paints/images/308.jpg,paints/images/41.jpg,185,kevin,1,2020-11-21_17h11.42.505,test3,2020.2.4,Win32,60,,,z,56.78746,0,184,184,184,1
,,,,m,0.855975,0,185,185,185,1,paints/images/260.jpg,paints/images/297.jpg,186,kevin,1,2020-11-21_17h11.42.505,test3,2020.2.4,Win32,60,,,m,0.855975,0,185,185,185,1
,,,,m,0.617235,0,186,186,186,1,paints/images/126.jpg,paints/images/273.jpg,187,kevin,1,2020-11-21_17h11.42.505,test3,2020.2.4,Win32,60,,,m,0.617235,0,186,186,186,1
,,,,z,2.38245,0,187,187,187,1,paints/images/68.jpg,paints/images/189.jpg,188,kevin,1,2020-11-21_17h11.42.505,test3,2020.2.4,Win32,60,,,z,2.38245,0,187,187,187,1
,,,,z,0.567685,0,188,188,188,1,paints/images/144.jpg,paints/images/280.jpg,189,kevin,1,2020-11-21_17h11.42.505,test3,2020.2.4,Win32,60,,,z,0.567685,0,188,188,188,1
,,,,z,1.099785,0,189,189,189,1,paints/images/24.jpg,paints/images/389.jpg,190,kevin,1,2020-11-21_17h11.42.505,test3,2020.2.4,Win32,60,,,z,1.099785,0,189,189,189,1
,,,,z,0.55176,0,190,190,190,1,paints/images/222.jpg,paints/images/7.jpg,191,kevin,1,2020-11-21_17h11.42.505,test3,2020.2.4,Win32,60,,,z,0.55176,0,190,190,190,1
,,,,z,1.557745,0,191,191,191,1,paints/images/282.jpg,paints/images/278.jpg,192,kevin,1,2020-11-21_17h11.42.505,test3,2020.2.4,Win32,60,,,z,1.557745,0,191,191,191,1
,,,,z,0.63486,0,192,192,192,1,paints/images/190.jpg,paints/images/61.jpg,193,kevin,1,2020-11-21_17h11.42.505,test3,2020.2.4,Win32,60,,,z,0.63486,0,192,192,192,1
,,,,z,1.14777,0,193,193,193,1,paints/images/212.jpg,paints/images/402.jpg,194,kevin,1,2020-11-21_17h11.42.505,test3,2020.2.4,Win32,60,,,z,1.14777,0,193,193,193,1
,,,,z,0.6308,0,194,194,194,1,paints/images/80.jpg,paints/images/410.jpg,195,kevin,1,2020-11-21_17h11.42.505,test3,2020.2.4,Win32,60,,,z,0.6308,0,194,194,194,1
,,,,z,0.99426,0,195,195,195,1,paints/images/252.jpg,paints/images/382.jpg,196,kevin,1,2020-11-21_17h11.42.505,test3,2020.2.4,Win32,60,,,z,0.99426,0,195,195,195,1
,,,,z,1.17975,0,196,196,196,1,paints/images/71.jpg,paints/images/337.jpg,197,kevin,1,2020-11-21_17h11.42.505,test3,2020.2.4,Win32,60,,,z,1.17975,0,196,196,196,1
,,,,m,0.708515,0,197,197,197,1,paints/images/264.jpg,paints/images/118.jpg,198,kevin,1,2020-11-21_17h11.42.505,test3,2020.2.4,Win32,60,,,m,0.708515,0,197,197,197,1
,,,,z,0.981155,0,198,198,198,1,paints/images/180.jpg,paints/images/357.jpg,199,kevin,1,2020-11-21_17h11.42.505,test3,2020.2.4,Win32,60,,,z,0.981155,0,198,198,198,1
,,,,m,1.200845,0,199,199,199,1,paints/images/357.jpg,paints/images/15.jpg,200,kevin,1,2020-11-21_17h11.42.505,test3,2020.2.4,Win32,60,,,m,1.200845,0,199,199,199,1
,,,,z,0.70681,0,200,200,200,1,paints/images/401.jpg,paints/images/220.jpg,201,kevin,1,2020-11-21_17h11.42.505,test3,2020.2.4,Win32,60,,,z,0.70681,0,200,200,200,1
,,,,m,0.771695,0,201,201,201,1,paints/images/95.jpg,paints/images/135.jpg,202,kevin,1,2020-11-21_17h11.42.505,test3,2020.2.4,Win32,60,,,m,0.771695,0,201,201,201,1
,,,,z,0.68969,0,202,202,202,1,paints/images/152.jpg,paints/images/234.jpg,203,kevin,1,2020-11-21_17h11.42.505,test3,2020.2.4,Win32,60,,,z,0.68969,0,202,202,202,1
,,,,z,0.84372,0,203,203,203,1,paints/images/30.jpg,paints/images/88.jpg,204,kevin,1,2020-11-21_17h11.42.505,test3,2020.2.4,Win32,60,,,z,0.84372,0,203,203,203,1
,,,,z,1.47161,0,204,204,204,1,paints/images/194.jpg,paints/images/392.jpg,205,kevin,1,2020-11-21_17h11.42.505,test3,2020.2.4,Win32,60,,,z,1.47161,0,204,204,204,1
,,,,z,1.098415,0,205,205,205,1,paints/images/351.jpg,paints/images/103.jpg,206,kevin,1,2020-11-21_17h11.42.505,test3,2020.2.4,Win32,60,,,z,1.098415,0,205,205,205,1
,,,,z,0.644415,0,206,206,206,1,paints/images/236.jpg,paints/images/369.jpg,207,kevin,1,2020-11-21_17h11.42.505,test3,2020.2.4,Win32,60,,,z,0.644415,0,206,206,206,1
,,,,z,1.074575,0,207,207,207,1,paints/images/219.jpg,paints/images/136.jpg,208,kevin,1,2020-11-21_17h11.42.505,test3,2020.2.4,Win32,60,,,z,1.074575,0,207,207,207,1
,,,,m,0.8053,0,208,208,208,1,paints/images/306.jpg,paints/images/239.jpg,209,kevin,1,2020-11-21_17h11.42.505,test3,2020.2.4,Win32,60,,,m,0.8053,0,208,208,208,1
,,,,z,0.582675,0,209,209,209,1,paints/images/108.jpg,paints/images/259.jpg,210,kevin,1,2020-11-21_17h11.42.505,test3,2020.2.4,Win32,60,,,z,0.582675,0,209,209,209,1
,,,,m,0.70236,0,210,210,210,1,paints/images/210.jpg,paints/images/30.jpg,211,kevin,1,2020-11-21_17h11.42.505,test3,2020.2.4,Win32,60,,,m,0.70236,0,210,210,210,1
