key_resp.keys,key_resp.rt,key_resp_3.keys,key_resp_3.rt,key_resp_2.keys,key_resp_2.rt,trials.thisRepN,trials.thisTrialN,trials.thisN,trials.thisIndex,trials.ran,image_left,image_right,trial_num,participant,session,date,expName,psychopyVersion,OS,frameRate,key_resp_5.keys,key_resp_5.rt,key_resp_4.keys,key_resp_4.rt,trials_2.thisRepN,trials_2.thisTrialN,trials_2.thisN,trials_2.thisIndex,trials_2.ran
space,3.762,space,23.833,z,6.45,0,0,0,0,1,paints/images/344.jpg,paints/images/121.jpg,1,Kristina,1,2020-11-20_15h50.42.170,test3,2020.2.4,MacIntel,60,,,,,,,,,
,,,,z,1.232,0,1,1,1,1,paints/images/369.jpg,paints/images/367.jpg,2,Kristina,1,2020-11-20_15h50.42.170,test3,2020.2.4,MacIntel,60,,,,,,,,,
,,,,m,1.071,0,2,2,2,1,paints/images/385.jpg,paints/images/253.jpg,3,Kristina,1,2020-11-20_15h50.42.170,test3,2020.2.4,MacIntel,60,,,,,,,,,
,,,,z,1.177,0,3,3,3,1,paints/images/230.jpg,paints/images/124.jpg,4,Kristina,1,2020-11-20_15h50.42.170,test3,2020.2.4,MacIntel,60,,,,,,,,,
,,,,z,1.318,0,4,4,4,1,paints/images/284.jpg,paints/images/172.jpg,5,Kristina,1,2020-11-20_15h50.42.170,test3,2020.2.4,MacIntel,60,,,,,,,,,
,,,,m,0.84,0,5,5,5,1,paints/images/325.jpg,paints/images/5.jpg,6,Kristina,1,2020-11-20_15h50.42.170,test3,2020.2.4,MacIntel,60,,,,,,,,,
,,,,z,1.938,0,6,6,6,1,paints/images/2.jpg,paints/images/107.jpg,7,Kristina,1,2020-11-20_15h50.42.170,test3,2020.2.4,MacIntel,60,,,,,,,,,
,,,,z,1.312,0,7,7,7,1,paints/images/330.jpg,paints/images/93.jpg,8,Kristina,1,2020-11-20_15h50.42.170,test3,2020.2.4,MacIntel,60,,,,,,,,,
,,,,z,0.994,0,8,8,8,1,paints/images/197.jpg,paints/images/20.jpg,9,Kristina,1,2020-11-20_15h50.42.170,test3,2020.2.4,MacIntel,60,,,,,,,,,
,,,,z,1.312,0,9,9,9,1,paints/images/233.jpg,paints/images/346.jpg,10,Kristina,1,2020-11-20_15h50.42.170,test3,2020.2.4,MacIntel,60,,,,,,,,,
,,,,z,1.26,0,10,10,10,1,paints/images/289.jpg,paints/images/317.jpg,11,Kristina,1,2020-11-20_15h50.42.170,test3,2020.2.4,MacIntel,60,,,,,,,,,
,,,,z,1.228,0,11,11,11,1,paints/images/189.jpg,paints/images/230.jpg,12,Kristina,1,2020-11-20_15h50.42.170,test3,2020.2.4,MacIntel,60,,,,,,,,,
,,,,m,1.714,0,12,12,12,1,paints/images/28.jpg,paints/images/401.jpg,13,Kristina,1,2020-11-20_15h50.42.170,test3,2020.2.4,MacIntel,60,,,,,,,,,
,,,,m,0.942,0,13,13,13,1,paints/images/183.jpg,paints/images/198.jpg,14,Kristina,1,2020-11-20_15h50.42.170,test3,2020.2.4,MacIntel,60,,,,,,,,,
,,,,m,1.159,0,14,14,14,1,paints/images/223.jpg,paints/images/249.jpg,15,Kristina,1,2020-11-20_15h50.42.170,test3,2020.2.4,MacIntel,60,,,,,,,,,
,,,,z,0.885,0,15,15,15,1,paints/images/331.jpg,paints/images/168.jpg,16,Kristina,1,2020-11-20_15h50.42.170,test3,2020.2.4,MacIntel,60,,,,,,,,,
,,,,z,0.914,0,16,16,16,1,paints/images/129.jpg,paints/images/21.jpg,17,Kristina,1,2020-11-20_15h50.42.170,test3,2020.2.4,MacIntel,60,,,,,,,,,
,,,,m,1.864,0,17,17,17,1,paints/images/250.jpg,paints/images/290.jpg,18,Kristina,1,2020-11-20_15h50.42.170,test3,2020.2.4,MacIntel,60,,,,,,,,,
,,,,m,1.276,0,18,18,18,1,paints/images/342.jpg,paints/images/371.jpg,19,Kristina,1,2020-11-20_15h50.42.170,test3,2020.2.4,MacIntel,60,,,,,,,,,
,,,,z,0.861,0,19,19,19,1,paints/images/312.jpg,paints/images/349.jpg,20,Kristina,1,2020-11-20_15h50.42.170,test3,2020.2.4,MacIntel,60,,,,,,,,,
,,,,z,0.776,0,20,20,20,1,paints/images/44.jpg,paints/images/23.jpg,21,Kristina,1,2020-11-20_15h50.42.170,test3,2020.2.4,MacIntel,60,,,,,,,,,
,,,,m,0.787,0,21,21,21,1,paints/images/209.jpg,paints/images/236.jpg,22,Kristina,1,2020-11-20_15h50.42.170,test3,2020.2.4,MacIntel,60,,,,,,,,,
,,,,m,0.808,0,22,22,22,1,paints/images/314.jpg,paints/images/326.jpg,23,Kristina,1,2020-11-20_15h50.42.170,test3,2020.2.4,MacIntel,60,,,,,,,,,
,,,,z,0.859,0,23,23,23,1,paints/images/374.jpg,paints/images/397.jpg,24,Kristina,1,2020-11-20_15h50.42.170,test3,2020.2.4,MacIntel,60,,,,,,,,,
,,,,m,0.648,0,24,24,24,1,paints/images/355.jpg,paints/images/400.jpg,25,Kristina,1,2020-11-20_15h50.42.170,test3,2020.2.4,MacIntel,60,,,,,,,,,
,,,,z,1.007,0,25,25,25,1,paints/images/346.jpg,paints/images/223.jpg,26,Kristina,1,2020-11-20_15h50.42.170,test3,2020.2.4,MacIntel,60,,,,,,,,,
,,,,m,0.991,0,26,26,26,1,paints/images/292.jpg,paints/images/122.jpg,27,Kristina,1,2020-11-20_15h50.42.170,test3,2020.2.4,MacIntel,60,,,,,,,,,
,,,,m,3.341,0,27,27,27,1,paints/images/81.jpg,paints/images/294.jpg,28,Kristina,1,2020-11-20_15h50.42.170,test3,2020.2.4,MacIntel,60,,,,,,,,,
,,,,z,0.853,0,28,28,28,1,paints/images/359.jpg,paints/images/370.jpg,29,Kristina,1,2020-11-20_15h50.42.170,test3,2020.2.4,MacIntel,60,,,,,,,,,
,,,,z,0.928,0,29,29,29,1,paints/images/88.jpg,paints/images/119.jpg,30,Kristina,1,2020-11-20_15h50.42.170,test3,2020.2.4,MacIntel,60,,,,,,,,,
,,,,m,0.738,0,30,30,30,1,paints/images/178.jpg,paints/images/47.jpg,31,Kristina,1,2020-11-20_15h50.42.170,test3,2020.2.4,MacIntel,60,,,,,,,,,
,,,,z,0.852,0,31,31,31,1,paints/images/139.jpg,paints/images/377.jpg,32,Kristina,1,2020-11-20_15h50.42.170,test3,2020.2.4,MacIntel,60,,,,,,,,,
,,,,z,0.815,0,32,32,32,1,paints/images/142.jpg,paints/images/379.jpg,33,Kristina,1,2020-11-20_15h50.42.170,test3,2020.2.4,MacIntel,60,,,,,,,,,
,,,,z,1.141,0,33,33,33,1,paints/images/366.jpg,paints/images/22.jpg,34,Kristina,1,2020-11-20_15h50.42.170,test3,2020.2.4,MacIntel,60,,,,,,,,,
,,,,z,1.09,0,34,34,34,1,paints/images/277.jpg,paints/images/365.jpg,35,Kristina,1,2020-11-20_15h50.42.170,test3,2020.2.4,MacIntel,60,,,,,,,,,
,,,,z,1.417,0,35,35,35,1,paints/images/406.jpg,paints/images/388.jpg,36,Kristina,1,2020-11-20_15h50.42.170,test3,2020.2.4,MacIntel,60,,,,,,,,,
,,,,z,1.45,0,36,36,36,1,paints/images/389.jpg,paints/images/104.jpg,37,Kristina,1,2020-11-20_15h50.42.170,test3,2020.2.4,MacIntel,60,,,,,,,,,
,,,,m,0.713,0,37,37,37,1,paints/images/20.jpg,paints/images/84.jpg,38,Kristina,1,2020-11-20_15h50.42.170,test3,2020.2.4,MacIntel,60,,,,,,,,,
,,,,z,1.207,0,38,38,38,1,paints/images/169.jpg,paints/images/163.jpg,39,Kristina,1,2020-11-20_15h50.42.170,test3,2020.2.4,MacIntel,60,,,,,,,,,
,,,,z,1.161,0,39,39,39,1,paints/images/58.jpg,paints/images/359.jpg,40,Kristina,1,2020-11-20_15h50.42.170,test3,2020.2.4,MacIntel,60,,,,,,,,,
,,,,z,1.027,0,40,40,40,1,paints/images/376.jpg,paints/images/256.jpg,41,Kristina,1,2020-11-20_15h50.42.170,test3,2020.2.4,MacIntel,60,,,,,,,,,
,,,,z,1.737,0,41,41,41,1,paints/images/33.jpg,paints/images/261.jpg,42,Kristina,1,2020-11-20_15h50.42.170,test3,2020.2.4,MacIntel,60,,,,,,,,,
,,,,z,1.286,0,42,42,42,1,paints/images/294.jpg,paints/images/96.jpg,43,Kristina,1,2020-11-20_15h50.42.170,test3,2020.2.4,MacIntel,60,,,,,,,,,
,,,,m,1.332,0,43,43,43,1,paints/images/269.jpg,paints/images/293.jpg,44,Kristina,1,2020-11-20_15h50.42.170,test3,2020.2.4,MacIntel,60,,,,,,,,,
,,,,z,1.303,0,44,44,44,1,paints/images/199.jpg,paints/images/284.jpg,45,Kristina,1,2020-11-20_15h50.42.170,test3,2020.2.4,MacIntel,60,,,,,,,,,
,,,,m,2.097,0,45,45,45,1,paints/images/255.jpg,paints/images/281.jpg,46,Kristina,1,2020-11-20_15h50.42.170,test3,2020.2.4,MacIntel,60,,,,,,,,,
,,,,m,1.463,0,46,46,46,1,paints/images/382.jpg,paints/images/4.jpg,47,Kristina,1,2020-11-20_15h50.42.170,test3,2020.2.4,MacIntel,60,,,,,,,,,
,,,,z,1.861,0,47,47,47,1,paints/images/111.jpg,paints/images/83.jpg,48,Kristina,1,2020-11-20_15h50.42.170,test3,2020.2.4,MacIntel,60,,,,,,,,,
,,,,m,0.893,0,48,48,48,1,paints/images/239.jpg,paints/images/151.jpg,49,Kristina,1,2020-11-20_15h50.42.170,test3,2020.2.4,MacIntel,60,,,,,,,,,
,,,,m,1.023,0,49,49,49,1,paints/images/84.jpg,paints/images/341.jpg,50,Kristina,1,2020-11-20_15h50.42.170,test3,2020.2.4,MacIntel,60,,,,,,,,,
,,,,z,1.431,0,50,50,50,1,paints/images/317.jpg,paints/images/159.jpg,51,Kristina,1,2020-11-20_15h50.42.170,test3,2020.2.4,MacIntel,60,,,,,,,,,
,,,,m,0.661,0,51,51,51,1,paints/images/153.jpg,paints/images/212.jpg,52,Kristina,1,2020-11-20_15h50.42.170,test3,2020.2.4,MacIntel,60,,,,,,,,,
,,,,z,0.727,0,52,52,52,1,paints/images/5.jpg,paints/images/361.jpg,53,Kristina,1,2020-11-20_15h50.42.170,test3,2020.2.4,MacIntel,60,,,,,,,,,
,,,,z,0.797,0,53,53,53,1,paints/images/319.jpg,paints/images/178.jpg,54,Kristina,1,2020-11-20_15h50.42.170,test3,2020.2.4,MacIntel,60,,,,,,,,,
,,,,m,0.711,0,54,54,54,1,paints/images/118.jpg,paints/images/275.jpg,55,Kristina,1,2020-11-20_15h50.42.170,test3,2020.2.4,MacIntel,60,,,,,,,,,
,,,,z,1.202,0,55,55,55,1,paints/images/213.jpg,paints/images/312.jpg,56,Kristina,1,2020-11-20_15h50.42.170,test3,2020.2.4,MacIntel,60,,,,,,,,,
,,,,m,1.059,0,56,56,56,1,paints/images/4.jpg,paints/images/131.jpg,57,Kristina,1,2020-11-20_15h50.42.170,test3,2020.2.4,MacIntel,60,,,,,,,,,
,,,,z,1.009,0,57,57,57,1,paints/images/206.jpg,paints/images/391.jpg,58,Kristina,1,2020-11-20_15h50.42.170,test3,2020.2.4,MacIntel,60,,,,,,,,,
,,,,z,1.361,0,58,58,58,1,paints/images/349.jpg,paints/images/240.jpg,59,Kristina,1,2020-11-20_15h50.42.170,test3,2020.2.4,MacIntel,60,,,,,,,,,
,,,,m,1.601,0,59,59,59,1,paints/images/174.jpg,paints/images/197.jpg,60,Kristina,1,2020-11-20_15h50.42.170,test3,2020.2.4,MacIntel,60,,,,,,,,,
,,,,m,1.041,0,60,60,60,1,paints/images/93.jpg,paints/images/330.jpg,61,Kristina,1,2020-11-20_15h50.42.170,test3,2020.2.4,MacIntel,60,,,,,,,,,
,,,,m,1.259,0,61,61,61,1,paints/images/262.jpg,paints/images/225.jpg,62,Kristina,1,2020-11-20_15h50.42.170,test3,2020.2.4,MacIntel,60,,,,,,,,,
,,,,m,1.307,0,62,62,62,1,paints/images/322.jpg,paints/images/267.jpg,63,Kristina,1,2020-11-20_15h50.42.170,test3,2020.2.4,MacIntel,60,,,,,,,,,
,,,,z,1.018,0,63,63,63,1,paints/images/104.jpg,paints/images/140.jpg,64,Kristina,1,2020-11-20_15h50.42.170,test3,2020.2.4,MacIntel,60,,,,,,,,,
,,,,z,0.96,0,64,64,64,1,paints/images/400.jpg,paints/images/355.jpg,65,Kristina,1,2020-11-20_15h50.42.170,test3,2020.2.4,MacIntel,60,,,,,,,,,
,,,,m,1.273,0,65,65,65,1,paints/images/89.jpg,paints/images/380.jpg,66,Kristina,1,2020-11-20_15h50.42.170,test3,2020.2.4,MacIntel,60,,,,,,,,,
,,,,z,1.025,0,66,66,66,1,paints/images/181.jpg,paints/images/195.jpg,67,Kristina,1,2020-11-20_15h50.42.170,test3,2020.2.4,MacIntel,60,,,,,,,,,
,,,,z,1.325,0,67,67,67,1,paints/images/130.jpg,paints/images/155.jpg,68,Kristina,1,2020-11-20_15h50.42.170,test3,2020.2.4,MacIntel,60,,,,,,,,,
,,,,m,1.352,0,68,68,68,1,paints/images/15.jpg,paints/images/55.jpg,69,Kristina,1,2020-11-20_15h50.42.170,test3,2020.2.4,MacIntel,60,,,,,,,,,
,,,,z,5.672,0,69,69,69,1,paints/images/393.jpg,paints/images/34.jpg,70,Kristina,1,2020-11-20_15h50.42.170,test3,2020.2.4,MacIntel,60,,,,,,,,,
,,,,z,1.16,0,70,70,70,1,paints/images/192.jpg,paints/images/351.jpg,71,Kristina,1,2020-11-20_15h50.42.170,test3,2020.2.4,MacIntel,60,,,,,,,,,
,,,,z,1.069,0,71,71,71,1,paints/images/57.jpg,paints/images/363.jpg,72,Kristina,1,2020-11-20_15h50.42.170,test3,2020.2.4,MacIntel,60,,,,,,,,,
,,,,m,0.848,0,72,72,72,1,paints/images/243.jpg,paints/images/295.jpg,73,Kristina,1,2020-11-20_15h50.42.170,test3,2020.2.4,MacIntel,60,,,,,,,,,
,,,,z,1.049,0,73,73,73,1,paints/images/196.jpg,paints/images/146.jpg,74,Kristina,1,2020-11-20_15h50.42.170,test3,2020.2.4,MacIntel,60,,,,,,,,,
,,,,m,0.793,0,74,74,74,1,paints/images/367.jpg,paints/images/332.jpg,75,Kristina,1,2020-11-20_15h50.42.170,test3,2020.2.4,MacIntel,60,,,,,,,,,
,,,,m,0.808,0,75,75,75,1,paints/images/249.jpg,paints/images/50.jpg,76,Kristina,1,2020-11-20_15h50.42.170,test3,2020.2.4,MacIntel,60,,,,,,,,,
,,,,m,0.722,0,76,76,76,1,paints/images/100.jpg,paints/images/91.jpg,77,Kristina,1,2020-11-20_15h50.42.170,test3,2020.2.4,MacIntel,60,,,,,,,,,
,,,,z,0.784,0,77,77,77,1,paints/images/301.jpg,paints/images/154.jpg,78,Kristina,1,2020-11-20_15h50.42.170,test3,2020.2.4,MacIntel,60,,,,,,,,,
,,,,z,0.908,0,78,78,78,1,paints/images/13.jpg,paints/images/308.jpg,79,Kristina,1,2020-11-20_15h50.42.170,test3,2020.2.4,MacIntel,60,,,,,,,,,
,,,,m,0.92,0,79,79,79,1,paints/images/11.jpg,paints/images/24.jpg,80,Kristina,1,2020-11-20_15h50.42.170,test3,2020.2.4,MacIntel,60,,,,,,,,,
,,,,z,0.691,0,80,80,80,1,paints/images/27.jpg,paints/images/114.jpg,81,Kristina,1,2020-11-20_15h50.42.170,test3,2020.2.4,MacIntel,60,,,,,,,,,
,,,,z,0.708,0,81,81,81,1,paints/images/334.jpg,paints/images/217.jpg,82,Kristina,1,2020-11-20_15h50.42.170,test3,2020.2.4,MacIntel,60,,,,,,,,,
,,,,m,0.794,0,82,82,82,1,paints/images/340.jpg,paints/images/320.jpg,83,Kristina,1,2020-11-20_15h50.42.170,test3,2020.2.4,MacIntel,60,,,,,,,,,
,,,,m,1.159,0,83,83,83,1,paints/images/204.jpg,paints/images/52.jpg,84,Kristina,1,2020-11-20_15h50.42.170,test3,2020.2.4,MacIntel,60,,,,,,,,,
,,,,m,1.254,0,84,84,84,1,paints/images/266.jpg,paints/images/179.jpg,85,Kristina,1,2020-11-20_15h50.42.170,test3,2020.2.4,MacIntel,60,,,,,,,,,
,,,,m,1.076,0,85,85,85,1,paints/images/309.jpg,paints/images/45.jpg,86,Kristina,1,2020-11-20_15h50.42.170,test3,2020.2.4,MacIntel,60,,,,,,,,,
,,,,m,0.857,0,86,86,86,1,paints/images/48.jpg,paints/images/352.jpg,87,Kristina,1,2020-11-20_15h50.42.170,test3,2020.2.4,MacIntel,60,,,,,,,,,
,,,,z,0.959,0,87,87,87,1,paints/images/238.jpg,paints/images/190.jpg,88,Kristina,1,2020-11-20_15h50.42.170,test3,2020.2.4,MacIntel,60,,,,,,,,,
,,,,m,1.057,0,88,88,88,1,paints/images/216.jpg,paints/images/207.jpg,89,Kristina,1,2020-11-20_15h50.42.170,test3,2020.2.4,MacIntel,60,,,,,,,,,
,,,,z,1.043,0,89,89,89,1,paints/images/228.jpg,paints/images/315.jpg,90,Kristina,1,2020-11-20_15h50.42.170,test3,2020.2.4,MacIntel,60,,,,,,,,,
,,,,m,0.807,0,90,90,90,1,paints/images/368.jpg,paints/images/221.jpg,91,Kristina,1,2020-11-20_15h50.42.170,test3,2020.2.4,MacIntel,60,,,,,,,,,
,,,,z,1.694,0,91,91,91,1,paints/images/402.jpg,paints/images/257.jpg,92,Kristina,1,2020-11-20_15h50.42.170,test3,2020.2.4,MacIntel,60,,,,,,,,,
,,,,m,0.852,0,92,92,92,1,paints/images/248.jpg,paints/images/296.jpg,93,Kristina,1,2020-11-20_15h50.42.170,test3,2020.2.4,MacIntel,60,,,,,,,,,
,,,,z,1.626,0,93,93,93,1,paints/images/234.jpg,paints/images/174.jpg,94,Kristina,1,2020-11-20_15h50.42.170,test3,2020.2.4,MacIntel,60,,,,,,,,,
,,,,z,2.368,0,94,94,94,1,paints/images/149.jpg,paints/images/204.jpg,95,Kristina,1,2020-11-20_15h50.42.170,test3,2020.2.4,MacIntel,60,,,,,,,,,
,,,,z,1.593,0,95,95,95,1,paints/images/56.jpg,paints/images/117.jpg,96,Kristina,1,2020-11-20_15h50.42.170,test3,2020.2.4,MacIntel,60,,,,,,,,,
,,,,m,1.055,0,96,96,96,1,paints/images/146.jpg,paints/images/287.jpg,97,Kristina,1,2020-11-20_15h50.42.170,test3,2020.2.4,MacIntel,60,,,,,,,,,
,,,,z,0.842,0,97,97,97,1,paints/images/221.jpg,paints/images/62.jpg,98,Kristina,1,2020-11-20_15h50.42.170,test3,2020.2.4,MacIntel,60,,,,,,,,,
,,,,m,1.341,0,98,98,98,1,paints/images/110.jpg,paints/images/321.jpg,99,Kristina,1,2020-11-20_15h50.42.170,test3,2020.2.4,MacIntel,60,,,,,,,,,
,,,,z,0.957,0,99,99,99,1,paints/images/67.jpg,paints/images/384.jpg,100,Kristina,1,2020-11-20_15h50.42.170,test3,2020.2.4,MacIntel,60,,,,,,,,,
,,,,z,1.091,0,100,100,100,1,paints/images/356.jpg,paints/images/137.jpg,101,Kristina,1,2020-11-20_15h50.42.170,test3,2020.2.4,MacIntel,60,,,,,,,,,
,,,,m,1.462,0,101,101,101,1,paints/images/274.jpg,paints/images/232.jpg,102,Kristina,1,2020-11-20_15h50.42.170,test3,2020.2.4,MacIntel,60,,,,,,,,,
,,,,m,1.069,0,102,102,102,1,paints/images/70.jpg,paints/images/183.jpg,103,Kristina,1,2020-11-20_15h50.42.170,test3,2020.2.4,MacIntel,60,,,,,,,,,
,,,,z,1.034,0,103,103,103,1,paints/images/10.jpg,paints/images/393.jpg,104,Kristina,1,2020-11-20_15h50.42.170,test3,2020.2.4,MacIntel,60,,,,,,,,,
,,,,m,1.03,0,104,104,104,1,paints/images/378.jpg,paints/images/181.jpg,105,Kristina,1,2020-11-20_15h50.42.170,test3,2020.2.4,MacIntel,60,,,,,,,,,
,,,,m,0.96,0,105,105,105,1,paints/images/303.jpg,paints/images/334.jpg,106,Kristina,1,2020-11-20_15h50.42.170,test3,2020.2.4,MacIntel,60,,,,,,,,,
,,,,z,0.82,0,106,106,106,1,paints/images/328.jpg,paints/images/344.jpg,107,Kristina,1,2020-11-20_15h50.42.170,test3,2020.2.4,MacIntel,60,,,,,,,,,
,,,,m,1.727,0,107,107,107,1,paints/images/397.jpg,paints/images/318.jpg,108,Kristina,1,2020-11-20_15h50.42.170,test3,2020.2.4,MacIntel,60,,,,,,,,,
,,,,z,1.999,0,108,108,108,1,paints/images/365.jpg,paints/images/211.jpg,109,Kristina,1,2020-11-20_15h50.42.170,test3,2020.2.4,MacIntel,60,,,,,,,,,
,,,,m,1.873,0,109,109,109,1,paints/images/23.jpg,paints/images/46.jpg,110,Kristina,1,2020-11-20_15h50.42.170,test3,2020.2.4,MacIntel,60,,,,,,,,,
,,,,m,0.963,0,110,110,110,1,paints/images/304.jpg,paints/images/11.jpg,111,Kristina,1,2020-11-20_15h50.42.170,test3,2020.2.4,MacIntel,60,,,,,,,,,
,,,,m,0.788,0,111,111,111,1,paints/images/226.jpg,paints/images/6.jpg,112,Kristina,1,2020-11-20_15h50.42.170,test3,2020.2.4,MacIntel,60,,,,,,,,,
,,,,z,1.015,0,112,112,112,1,paints/images/170.jpg,paints/images/262.jpg,113,Kristina,1,2020-11-20_15h50.42.170,test3,2020.2.4,MacIntel,60,,,,,,,,,
,,,,z,0.838,0,113,113,113,1,paints/images/259.jpg,paints/images/343.jpg,114,Kristina,1,2020-11-20_15h50.42.170,test3,2020.2.4,MacIntel,60,,,,,,,,,
,,,,z,2.085,0,114,114,114,1,paints/images/19.jpg,paints/images/394.jpg,115,Kristina,1,2020-11-20_15h50.42.170,test3,2020.2.4,MacIntel,60,,,,,,,,,
,,,,m,1.166,0,115,115,115,1,paints/images/215.jpg,paints/images/19.jpg,116,Kristina,1,2020-11-20_15h50.42.170,test3,2020.2.4,MacIntel,60,,,,,,,,,
,,,,z,1.542,0,116,116,116,1,paints/images/52.jpg,paints/images/360.jpg,117,Kristina,1,2020-11-20_15h50.42.170,test3,2020.2.4,MacIntel,60,,,,,,,,,
,,,,m,2.173,0,117,117,117,1,paints/images/99.jpg,paints/images/328.jpg,118,Kristina,1,2020-11-20_15h50.42.170,test3,2020.2.4,MacIntel,60,,,,,,,,,
,,,,z,1.358,0,118,118,118,1,paints/images/150.jpg,paints/images/164.jpg,119,Kristina,1,2020-11-20_15h50.42.170,test3,2020.2.4,MacIntel,60,,,,,,,,,
,,,,z,1.52,0,119,119,119,1,paints/images/172.jpg,paints/images/213.jpg,120,Kristina,1,2020-11-20_15h50.42.170,test3,2020.2.4,MacIntel,60,,,,,,,,,
,,,,z,0.979,0,120,120,120,1,paints/images/50.jpg,paints/images/101.jpg,121,Kristina,1,2020-11-20_15h50.42.170,test3,2020.2.4,MacIntel,60,,,,,,,,,
,,,,m,1.221,0,121,121,121,1,paints/images/358.jpg,paints/images/354.jpg,122,Kristina,1,2020-11-20_15h50.42.170,test3,2020.2.4,MacIntel,60,,,,,,,,,
,,,,m,2.294,0,122,122,122,1,paints/images/257.jpg,paints/images/265.jpg,123,Kristina,1,2020-11-20_15h50.42.170,test3,2020.2.4,MacIntel,60,,,,,,,,,
,,,,z,1.902,0,123,123,123,1,paints/images/91.jpg,paints/images/342.jpg,124,Kristina,1,2020-11-20_15h50.42.170,test3,2020.2.4,MacIntel,60,,,,,,,,,
,,,,z,1.108,0,124,124,124,1,paints/images/168.jpg,paints/images/132.jpg,125,Kristina,1,2020-11-20_15h50.42.170,test3,2020.2.4,MacIntel,60,,,,,,,,,
,,,,z,1.215,0,125,125,125,1,paints/images/280.jpg,paints/images/98.jpg,126,Kristina,1,2020-11-20_15h50.42.170,test3,2020.2.4,MacIntel,60,,,,,,,,,
,,,,z,0.968,0,126,126,126,1,paints/images/261.jpg,paints/images/40.jpg,127,Kristina,1,2020-11-20_15h50.42.170,test3,2020.2.4,MacIntel,60,,,,,,,,,
,,,,m,2.058,0,127,127,127,1,paints/images/333.jpg,paints/images/66.jpg,128,Kristina,1,2020-11-20_15h50.42.170,test3,2020.2.4,MacIntel,60,,,,,,,,,
,,,,z,1.003,0,128,128,128,1,paints/images/96.jpg,paints/images/82.jpg,129,Kristina,1,2020-11-20_15h50.42.170,test3,2020.2.4,MacIntel,60,,,,,,,,,
,,,,m,1.942,0,129,129,129,1,paints/images/32.jpg,paints/images/325.jpg,130,Kristina,1,2020-11-20_15h50.42.170,test3,2020.2.4,MacIntel,60,,,,,,,,,
,,,,z,1.057,0,130,130,130,1,paints/images/268.jpg,paints/images/167.jpg,131,Kristina,1,2020-11-20_15h50.42.170,test3,2020.2.4,MacIntel,60,,,,,,,,,
,,,,m,0.768,0,131,131,131,1,paints/images/162.jpg,paints/images/25.jpg,132,Kristina,1,2020-11-20_15h50.42.170,test3,2020.2.4,MacIntel,60,,,,,,,,,
,,,,z,1.442,0,132,132,132,1,paints/images/53.jpg,paints/images/305.jpg,133,Kristina,1,2020-11-20_15h50.42.170,test3,2020.2.4,MacIntel,60,,,,,,,,,
,,,,z,1.096,0,133,133,133,1,paints/images/263.jpg,paints/images/209.jpg,134,Kristina,1,2020-11-20_15h50.42.170,test3,2020.2.4,MacIntel,60,,,,,,,,,
,,,,m,1.791,0,134,134,134,1,paints/images/92.jpg,paints/images/364.jpg,135,Kristina,1,2020-11-20_15h50.42.170,test3,2020.2.4,MacIntel,60,,,,,,,,,
,,,,m,1.49,0,135,135,135,1,paints/images/61.jpg,paints/images/291.jpg,136,Kristina,1,2020-11-20_15h50.42.170,test3,2020.2.4,MacIntel,60,,,,,,,,,
,,,,z,2.763,0,136,136,136,1,paints/images/293.jpg,paints/images/283.jpg,137,Kristina,1,2020-11-20_15h50.42.170,test3,2020.2.4,MacIntel,60,,,,,,,,,
,,,,m,1.543,0,137,137,137,1,paints/images/229.jpg,paints/images/173.jpg,138,Kristina,1,2020-11-20_15h50.42.170,test3,2020.2.4,MacIntel,60,,,,,,,,,
,,,,m,0.945,0,138,138,138,1,paints/images/41.jpg,paints/images/133.jpg,139,Kristina,1,2020-11-20_15h50.42.170,test3,2020.2.4,MacIntel,60,,,,,,,,,
,,,,z,0.86,0,139,139,139,1,paints/images/182.jpg,paints/images/348.jpg,140,Kristina,1,2020-11-20_15h50.42.170,test3,2020.2.4,MacIntel,60,,,,,,,,,
,,,,m,1.525,0,140,140,140,1,paints/images/379.jpg,paints/images/228.jpg,141,Kristina,1,2020-11-20_15h50.42.170,test3,2020.2.4,MacIntel,60,,,,,,,,,
,,,,z,1.169,0,141,141,141,1,paints/images/188.jpg,paints/images/13.jpg,142,Kristina,1,2020-11-20_15h50.42.170,test3,2020.2.4,MacIntel,60,,,,,,,,,
,,,,m,0.857,0,142,142,142,1,paints/images/40.jpg,paints/images/329.jpg,143,Kristina,1,2020-11-20_15h50.42.170,test3,2020.2.4,MacIntel,60,,,,,,,,,
,,,,z,1.035,0,143,143,143,1,paints/images/323.jpg,paints/images/165.jpg,144,Kristina,1,2020-11-20_15h50.42.170,test3,2020.2.4,MacIntel,60,,,,,,,,,
,,,,m,4.054,0,144,144,144,1,paints/images/78.jpg,paints/images/407.jpg,145,Kristina,1,2020-11-20_15h50.42.170,test3,2020.2.4,MacIntel,60,,,,,,,,,
,,,,m,0.949,0,145,145,145,1,paints/images/242.jpg,paints/images/75.jpg,146,Kristina,1,2020-11-20_15h50.42.170,test3,2020.2.4,MacIntel,60,,,,,,,,,
,,,,m,0.928,0,146,146,146,1,paints/images/62.jpg,paints/images/187.jpg,147,Kristina,1,2020-11-20_15h50.42.170,test3,2020.2.4,MacIntel,60,,,,,,,,,
,,,,z,0.944,0,147,147,147,1,paints/images/131.jpg,paints/images/285.jpg,148,Kristina,1,2020-11-20_15h50.42.170,test3,2020.2.4,MacIntel,60,,,,,,,,,
,,,,m,1.392,0,148,148,148,1,paints/images/241.jpg,paints/images/97.jpg,149,Kristina,1,2020-11-20_15h50.42.170,test3,2020.2.4,MacIntel,60,,,,,,,,,
,,,,m,1.037,0,149,149,149,1,paints/images/132.jpg,paints/images/289.jpg,150,Kristina,1,2020-11-20_15h50.42.170,test3,2020.2.4,MacIntel,60,,,,,,,,,
,,,,m,2.859,0,150,150,150,1,paints/images/185.jpg,paints/images/54.jpg,151,Kristina,1,2020-11-20_15h50.42.170,test3,2020.2.4,MacIntel,60,,,,,,,,,
,,,,m,2.282,0,151,151,151,1,paints/images/272.jpg,paints/images/51.jpg,152,Kristina,1,2020-11-20_15h50.42.170,test3,2020.2.4,MacIntel,60,,,,,,,,,
,,,,z,2.31,0,152,152,152,1,paints/images/403.jpg,paints/images/71.jpg,153,Kristina,1,2020-11-20_15h50.42.170,test3,2020.2.4,MacIntel,60,,,,,,,,,
,,,,m,3.641,0,153,153,153,1,paints/images/202.jpg,paints/images/219.jpg,154,Kristina,1,2020-11-20_15h50.42.170,test3,2020.2.4,MacIntel,60,,,,,,,,,
,,,,m,1.623,0,154,154,154,1,paints/images/34.jpg,paints/images/271.jpg,155,Kristina,1,2020-11-20_15h50.42.170,test3,2020.2.4,MacIntel,60,,,,,,,,,
,,,,m,1.842,0,155,155,155,1,paints/images/296.jpg,paints/images/90.jpg,156,Kristina,1,2020-11-20_15h50.42.170,test3,2020.2.4,MacIntel,60,,,,,,,,,
,,,,m,1.71,0,156,156,156,1,paints/images/25.jpg,paints/images/338.jpg,157,Kristina,1,2020-11-20_15h50.42.170,test3,2020.2.4,MacIntel,60,,,,,,,,,
,,,,m,1.314,0,157,157,157,1,paints/images/396.jpg,paints/images/78.jpg,158,Kristina,1,2020-11-20_15h50.42.170,test3,2020.2.4,MacIntel,60,,,,,,,,,
,,,,m,1.54,0,158,158,158,1,paints/images/72.jpg,paints/images/111.jpg,159,Kristina,1,2020-11-20_15h50.42.170,test3,2020.2.4,MacIntel,60,,,,,,,,,
,,,,z,2.59,0,159,159,159,1,paints/images/164.jpg,paints/images/16.jpg,160,Kristina,1,2020-11-20_15h50.42.170,test3,2020.2.4,MacIntel,60,,,,,,,,,
,,,,m,3.937,0,160,160,160,1,paints/images/387.jpg,paints/images/244.jpg,161,Kristina,1,2020-11-20_15h50.42.170,test3,2020.2.4,MacIntel,60,,,,,,,,,
,,,,z,1.993,0,161,161,161,1,paints/images/64.jpg,paints/images/260.jpg,162,Kristina,1,2020-11-20_15h50.42.170,test3,2020.2.4,MacIntel,60,,,,,,,,,
,,,,z,0.977,0,162,162,162,1,paints/images/160.jpg,paints/images/63.jpg,163,Kristina,1,2020-11-20_15h50.42.170,test3,2020.2.4,MacIntel,60,,,,,,,,,
,,,,z,1.177,0,163,163,163,1,paints/images/3.jpg,paints/images/282.jpg,164,Kristina,1,2020-11-20_15h50.42.170,test3,2020.2.4,MacIntel,60,,,,,,,,,
,,,,m,1.35,0,164,164,164,1,paints/images/307.jpg,paints/images/152.jpg,165,Kristina,1,2020-11-20_15h50.42.170,test3,2020.2.4,MacIntel,60,,,,,,,,,
,,,,z,1.823,0,165,165,165,1,paints/images/311.jpg,paints/images/123.jpg,166,Kristina,1,2020-11-20_15h50.42.170,test3,2020.2.4,MacIntel,60,,,,,,,,,
,,,,z,1.177,0,166,166,166,1,paints/images/143.jpg,paints/images/286.jpg,167,Kristina,1,2020-11-20_15h50.42.170,test3,2020.2.4,MacIntel,60,,,,,,,,,
,,,,z,1.053,0,167,167,167,1,paints/images/97.jpg,paints/images/216.jpg,168,Kristina,1,2020-11-20_15h50.42.170,test3,2020.2.4,MacIntel,60,,,,,,,,,
,,,,m,0.881,0,168,168,168,1,paints/images/395.jpg,paints/images/170.jpg,169,Kristina,1,2020-11-20_15h50.42.170,test3,2020.2.4,MacIntel,60,,,,,,,,,
,,,,z,0.697,0,169,169,169,1,paints/images/151.jpg,paints/images/26.jpg,170,Kristina,1,2020-11-20_15h50.42.170,test3,2020.2.4,MacIntel,60,,,,,,,,,
,,,,z,0.938,0,170,170,170,1,paints/images/51.jpg,paints/images/32.jpg,171,Kristina,1,2020-11-20_15h50.42.170,test3,2020.2.4,MacIntel,60,,,,,,,,,
,,,,z,1.054,0,171,171,171,1,paints/images/305.jpg,paints/images/176.jpg,172,Kristina,1,2020-11-20_15h50.42.170,test3,2020.2.4,MacIntel,60,,,,,,,,,
,,,,m,1.011,0,172,172,172,1,paints/images/137.jpg,paints/images/48.jpg,173,Kristina,1,2020-11-20_15h50.42.170,test3,2020.2.4,MacIntel,60,,,,,,,,,
,,,,m,1.128,0,173,173,173,1,paints/images/65.jpg,paints/images/243.jpg,174,Kristina,1,2020-11-20_15h50.42.170,test3,2020.2.4,MacIntel,60,,,,,,,,,
,,,,z,0.914,0,174,174,174,1,paints/images/115.jpg,paints/images/210.jpg,175,Kristina,1,2020-11-20_15h50.42.170,test3,2020.2.4,MacIntel,60,,,,,,,,,
,,,,m,0.927,0,175,175,175,1,paints/images/310.jpg,paints/images/58.jpg,176,Kristina,1,2020-11-20_15h50.42.170,test3,2020.2.4,MacIntel,60,,,,,,,,,
,,,,z,1.546,0,176,176,176,1,paints/images/1.jpg,paints/images/112.jpg,177,Kristina,1,2020-11-20_15h50.42.170,test3,2020.2.4,MacIntel,60,,,,,,,,,
,,,,m,1.957,0,177,177,177,1,paints/images/125.jpg,paints/images/17.jpg,178,Kristina,1,2020-11-20_15h50.42.170,test3,2020.2.4,MacIntel,60,,,,,,,,,
,,,,z,1.006,0,178,178,178,1,paints/images/279.jpg,paints/images/166.jpg,179,Kristina,1,2020-11-20_15h50.42.170,test3,2020.2.4,MacIntel,60,,,,,,,,,
,,,,m,1.943,0,179,179,179,1,paints/images/316.jpg,paints/images/306.jpg,180,Kristina,1,2020-11-20_15h50.42.170,test3,2020.2.4,MacIntel,60,,,,,,,,,
,,,,m,1.146,0,180,180,180,1,paints/images/22.jpg,paints/images/214.jpg,181,Kristina,1,2020-11-20_15h50.42.170,test3,2020.2.4,MacIntel,60,,,,,,,,,
,,,,m,0.884,0,181,181,181,1,paints/images/54.jpg,paints/images/235.jpg,182,Kristina,1,2020-11-20_15h50.42.170,test3,2020.2.4,MacIntel,60,,,,,,,,,
,,,,m,1.291,0,182,182,182,1,paints/images/225.jpg,paints/images/160.jpg,183,Kristina,1,2020-11-20_15h50.42.170,test3,2020.2.4,MacIntel,60,,,,,,,,,
,,,,m,1.009,0,183,183,183,1,paints/images/339.jpg,paints/images/59.jpg,184,Kristina,1,2020-11-20_15h50.42.170,test3,2020.2.4,MacIntel,60,,,,,,,,,
,,,,m,1.503,0,184,184,184,1,paints/images/409.jpg,paints/images/180.jpg,185,Kristina,1,2020-11-20_15h50.42.170,test3,2020.2.4,MacIntel,60,,,,,,,,,
,,,,m,1.216,0,185,185,185,1,paints/images/145.jpg,paints/images/115.jpg,186,Kristina,1,2020-11-20_15h50.42.170,test3,2020.2.4,MacIntel,60,,,,,,,,,
,,,,z,0.732,0,186,186,186,1,paints/images/147.jpg,paints/images/37.jpg,187,Kristina,1,2020-11-20_15h50.42.170,test3,2020.2.4,MacIntel,60,,,,,,,,,
,,,,m,1.74,0,187,187,187,1,paints/images/288.jpg,paints/images/64.jpg,188,Kristina,1,2020-11-20_15h50.42.170,test3,2020.2.4,MacIntel,60,,,,,,,,,
,,,,m,1.433,0,188,188,188,1,paints/images/235.jpg,paints/images/201.jpg,189,Kristina,1,2020-11-20_15h50.42.170,test3,2020.2.4,MacIntel,60,,,,,,,,,
,,,,m,1.541,0,189,189,189,1,paints/images/313.jpg,paints/images/2.jpg,190,Kristina,1,2020-11-20_15h50.42.170,test3,2020.2.4,MacIntel,60,,,,,,,,,
,,,,z,1.152,0,190,190,190,1,paints/images/329.jpg,paints/images/38.jpg,191,Kristina,1,2020-11-20_15h50.42.170,test3,2020.2.4,MacIntel,60,,,,,,,,,
,,,,m,0.874,0,191,191,191,1,paints/images/9.jpg,paints/images/241.jpg,192,Kristina,1,2020-11-20_15h50.42.170,test3,2020.2.4,MacIntel,60,,,,,,,,,
,,,,z,1.258,0,192,192,192,1,paints/images/364.jpg,paints/images/44.jpg,193,Kristina,1,2020-11-20_15h50.42.170,test3,2020.2.4,MacIntel,60,,,,,,,,,
,,,,z,1.398,0,193,193,193,1,paints/images/14.jpg,paints/images/109.jpg,194,Kristina,1,2020-11-20_15h50.42.170,test3,2020.2.4,MacIntel,60,,,,,,,,,
,,,,z,1.563,0,194,194,194,1,paints/images/0.jpg,paints/images/14.jpg,195,Kristina,1,2020-11-20_15h50.42.170,test3,2020.2.4,MacIntel,60,,,,,,,,,
,,,,z,1.449,0,195,195,195,1,paints/images/398.jpg,paints/images/247.jpg,196,Kristina,1,2020-11-20_15h50.42.170,test3,2020.2.4,MacIntel,60,,,,,,,,,
,,,,z,1.496,0,196,196,196,1,paints/images/377.jpg,paints/images/237.jpg,197,Kristina,1,2020-11-20_15h50.42.170,test3,2020.2.4,MacIntel,60,,,,,,,,,
,,,,z,1.616,0,197,197,197,1,paints/images/246.jpg,paints/images/184.jpg,198,Kristina,1,2020-11-20_15h50.42.170,test3,2020.2.4,MacIntel,60,,,,,,,,,
,,,,z,1.91,0,198,198,198,1,paints/images/299.jpg,paints/images/301.jpg,199,Kristina,1,2020-11-20_15h50.42.170,test3,2020.2.4,MacIntel,60,,,,,,,,,
,,,,m,1.168,0,199,199,199,1,paints/images/116.jpg,paints/images/148.jpg,200,Kristina,1,2020-11-20_15h50.42.170,test3,2020.2.4,MacIntel,60,,,,,,,,,
,,,,m,1.497,0,0,0,0,1,paints/images/267.jpg,paints/images/336.jpg,1,Kristina,1,2020-11-20_15h50.42.170,test3,2020.2.4,MacIntel,60,space,1.026,m,1.497,0,0,0,0,1
,,,,m,0.896,0,1,1,1,1,paints/images/6.jpg,paints/images/182.jpg,2,Kristina,1,2020-11-20_15h50.42.170,test3,2020.2.4,MacIntel,60,,,m,0.896,0,1,1,1,1
,,,,m,0.873,0,2,2,2,1,paints/images/348.jpg,paints/images/105.jpg,3,Kristina,1,2020-11-20_15h50.42.170,test3,2020.2.4,MacIntel,60,,,m,0.873,0,2,2,2,1
,,,,z,0.846,0,3,3,3,1,paints/images/404.jpg,paints/images/372.jpg,4,Kristina,1,2020-11-20_15h50.42.170,test3,2020.2.4,MacIntel,60,,,z,0.846,0,3,3,3,1
,,,,m,1.091,0,4,4,4,1,paints/images/324.jpg,paints/images/134.jpg,5,Kristina,1,2020-11-20_15h50.42.170,test3,2020.2.4,MacIntel,60,,,m,1.091,0,4,4,4,1
,,,,m,0.976,0,5,5,5,1,paints/images/278.jpg,paints/images/269.jpg,6,Kristina,1,2020-11-20_15h50.42.170,test3,2020.2.4,MacIntel,60,,,m,0.976,0,5,5,5,1
,,,,z,1.602,0,6,6,6,1,paints/images/237.jpg,paints/images/375.jpg,7,Kristina,1,2020-11-20_15h50.42.170,test3,2020.2.4,MacIntel,60,,,z,1.602,0,6,6,6,1
,,,,m,1.672,0,7,7,7,1,paints/images/109.jpg,paints/images/224.jpg,8,Kristina,1,2020-11-20_15h50.42.170,test3,2020.2.4,MacIntel,60,,,m,1.672,0,7,7,7,1
,,,,m,0.982,0,8,8,8,1,paints/images/318.jpg,paints/images/127.jpg,9,Kristina,1,2020-11-20_15h50.42.170,test3,2020.2.4,MacIntel,60,,,m,0.982,0,8,8,8,1
,,,,z,1.126,0,9,9,9,1,paints/images/120.jpg,paints/images/254.jpg,10,Kristina,1,2020-11-20_15h50.42.170,test3,2020.2.4,MacIntel,60,,,z,1.126,0,9,9,9,1
,,,,m,0.805,0,10,10,10,1,paints/images/86.jpg,paints/images/67.jpg,11,Kristina,1,2020-11-20_15h50.42.170,test3,2020.2.4,MacIntel,60,,,m,0.805,0,10,10,10,1
,,,,z,1.421,0,11,11,11,1,paints/images/302.jpg,paints/images/245.jpg,12,Kristina,1,2020-11-20_15h50.42.170,test3,2020.2.4,MacIntel,60,,,z,1.421,0,11,11,11,1
,,,,z,1.351,0,12,12,12,1,paints/images/94.jpg,paints/images/242.jpg,13,Kristina,1,2020-11-20_15h50.42.170,test3,2020.2.4,MacIntel,60,,,z,1.351,0,12,12,12,1
,,,,z,1.741,0,13,13,13,1,paints/images/295.jpg,paints/images/72.jpg,14,Kristina,1,2020-11-20_15h50.42.170,test3,2020.2.4,MacIntel,60,,,z,1.741,0,13,13,13,1
,,,,z,1.068,0,14,14,14,1,paints/images/227.jpg,paints/images/175.jpg,15,Kristina,1,2020-11-20_15h50.42.170,test3,2020.2.4,MacIntel,60,,,z,1.068,0,14,14,14,1
,,,,m,1.212,0,15,15,15,1,paints/images/26.jpg,paints/images/203.jpg,16,Kristina,1,2020-11-20_15h50.42.170,test3,2020.2.4,MacIntel,60,,,m,1.212,0,15,15,15,1
,,,,z,1.453,0,16,16,16,1,paints/images/45.jpg,paints/images/272.jpg,17,Kristina,1,2020-11-20_15h50.42.170,test3,2020.2.4,MacIntel,60,,,z,1.453,0,16,16,16,1
,,,,z,1.554,0,17,17,17,1,paints/images/410.jpg,paints/images/185.jpg,18,Kristina,1,2020-11-20_15h50.42.170,test3,2020.2.4,MacIntel,60,,,z,1.554,0,17,17,17,1
,,,,m,1.417,0,18,18,18,1,paints/images/380.jpg,paints/images/0.jpg,19,Kristina,1,2020-11-20_15h50.42.170,test3,2020.2.4,MacIntel,60,,,m,1.417,0,18,18,18,1
,,,,z,2.119,0,19,19,19,1,paints/images/370.jpg,paints/images/106.jpg,20,Kristina,1,2020-11-20_15h50.42.170,test3,2020.2.4,MacIntel,60,,,z,2.119,0,19,19,19,1
,,,,z,1.431,0,20,20,20,1,paints/images/102.jpg,paints/images/309.jpg,21,Kristina,1,2020-11-20_15h50.42.170,test3,2020.2.4,MacIntel,60,,,z,1.431,0,20,20,20,1
,,,,m,1.81,0,21,21,21,1,paints/images/167.jpg,paints/images/299.jpg,22,Kristina,1,2020-11-20_15h50.42.170,test3,2020.2.4,MacIntel,60,,,m,1.81,0,21,21,21,1
,,,,m,1.61,0,22,22,22,1,paints/images/290.jpg,paints/images/192.jpg,23,Kristina,1,2020-11-20_15h50.42.170,test3,2020.2.4,MacIntel,60,,,m,1.61,0,22,22,22,1
,,,,m,1.525,0,23,23,23,1,paints/images/82.jpg,paints/images/353.jpg,24,Kristina,1,2020-11-20_15h50.42.170,test3,2020.2.4,MacIntel,60,,,m,1.525,0,23,23,23,1
,,,,m,3.359,0,24,24,24,1,paints/images/75.jpg,paints/images/404.jpg,25,Kristina,1,2020-11-20_15h50.42.170,test3,2020.2.4,MacIntel,60,,,m,3.359,0,24,24,24,1
,,,,m,2.817,0,25,25,25,1,paints/images/117.jpg,paints/images/100.jpg,26,Kristina,1,2020-11-20_15h50.42.170,test3,2020.2.4,MacIntel,60,,,m,2.817,0,25,25,25,1
,,,,z,1.361,0,26,26,26,1,paints/images/200.jpg,paints/images/378.jpg,27,Kristina,1,2020-11-20_15h50.42.170,test3,2020.2.4,MacIntel,60,,,z,1.361,0,26,26,26,1
,,,,z,1.804,0,27,27,27,1,paints/images/371.jpg,paints/images/57.jpg,28,Kristina,1,2020-11-20_15h50.42.170,test3,2020.2.4,MacIntel,60,,,z,1.804,0,27,27,27,1
,,,,z,1.093,0,28,28,28,1,paints/images/87.jpg,paints/images/302.jpg,29,Kristina,1,2020-11-20_15h50.42.170,test3,2020.2.4,MacIntel,60,,,z,1.093,0,28,28,28,1
,,,,z,1.618,0,29,29,29,1,paints/images/208.jpg,paints/images/39.jpg,30,Kristina,1,2020-11-20_15h50.42.170,test3,2020.2.4,MacIntel,60,,,z,1.618,0,29,29,29,1
,,,,z,1.063,0,30,30,30,1,paints/images/198.jpg,paints/images/200.jpg,31,Kristina,1,2020-11-20_15h50.42.170,test3,2020.2.4,MacIntel,60,,,z,1.063,0,30,30,30,1
,,,,z,2.106,0,31,31,31,1,paints/images/43.jpg,paints/images/42.jpg,32,Kristina,1,2020-11-20_15h50.42.170,test3,2020.2.4,MacIntel,60,,,z,2.106,0,31,31,31,1
,,,,m,4.054,0,32,32,32,1,paints/images/286.jpg,paints/images/376.jpg,33,Kristina,1,2020-11-20_15h50.42.170,test3,2020.2.4,MacIntel,60,,,m,4.054,0,32,32,32,1
,,,,z,2.627,0,33,33,33,1,paints/images/275.jpg,paints/images/76.jpg,34,Kristina,1,2020-11-20_15h50.42.170,test3,2020.2.4,MacIntel,60,,,z,2.627,0,33,33,33,1
,,,,m,0.973,0,34,34,34,1,paints/images/138.jpg,paints/images/129.jpg,35,Kristina,1,2020-11-20_15h50.42.170,test3,2020.2.4,MacIntel,60,,,m,0.973,0,34,34,34,1
,,,,m,1.253,0,35,35,35,1,paints/images/386.jpg,paints/images/366.jpg,36,Kristina,1,2020-11-20_15h50.42.170,test3,2020.2.4,MacIntel,60,,,m,1.253,0,35,35,35,1
,,,,z,1.645,0,36,36,36,1,paints/images/232.jpg,paints/images/215.jpg,37,Kristina,1,2020-11-20_15h50.42.170,test3,2020.2.4,MacIntel,60,,,z,1.645,0,36,36,36,1
,,,,m,1.344,0,37,37,37,1,paints/images/122.jpg,paints/images/199.jpg,38,Kristina,1,2020-11-20_15h50.42.170,test3,2020.2.4,MacIntel,60,,,m,1.344,0,37,37,37,1
,,,,z,1.366,0,38,38,38,1,paints/images/388.jpg,paints/images/169.jpg,39,Kristina,1,2020-11-20_15h50.42.170,test3,2020.2.4,MacIntel,60,,,z,1.366,0,38,38,38,1
,,,,z,3.37,0,39,39,39,1,paints/images/399.jpg,paints/images/229.jpg,40,Kristina,1,2020-11-20_15h50.42.170,test3,2020.2.4,MacIntel,60,,,z,3.37,0,39,39,39,1
,,,,m,1.118,0,40,40,40,1,paints/images/300.jpg,paints/images/1.jpg,41,Kristina,1,2020-11-20_15h50.42.170,test3,2020.2.4,MacIntel,60,,,m,1.118,0,40,40,40,1
,,,,m,1.257,0,41,41,41,1,paints/images/195.jpg,paints/images/399.jpg,42,Kristina,1,2020-11-20_15h50.42.170,test3,2020.2.4,MacIntel,60,,,m,1.257,0,41,41,41,1
,,,,z,1.197,0,42,42,42,1,paints/images/281.jpg,paints/images/277.jpg,43,Kristina,1,2020-11-20_15h50.42.170,test3,2020.2.4,MacIntel,60,,,z,1.197,0,42,42,42,1
,,,,z,2.228,0,43,43,43,1,paints/images/103.jpg,paints/images/288.jpg,44,Kristina,1,2020-11-20_15h50.42.170,test3,2020.2.4,MacIntel,60,,,z,2.228,0,43,43,43,1
,,,,z,1.279,0,44,44,44,1,paints/images/297.jpg,paints/images/222.jpg,45,Kristina,1,2020-11-20_15h50.42.170,test3,2020.2.4,MacIntel,60,,,z,1.279,0,44,44,44,1
,,,,m,1.729,0,45,45,45,1,paints/images/394.jpg,paints/images/258.jpg,46,Kristina,1,2020-11-20_15h50.42.170,test3,2020.2.4,MacIntel,60,,,m,1.729,0,45,45,45,1
,,,,z,2.089,0,46,46,46,1,paints/images/73.jpg,paints/images/49.jpg,47,Kristina,1,2020-11-20_15h50.42.170,test3,2020.2.4,MacIntel,60,,,z,2.089,0,46,46,46,1
,,,,m,1.494,0,47,47,47,1,paints/images/112.jpg,paints/images/80.jpg,48,Kristina,1,2020-11-20_15h50.42.170,test3,2020.2.4,MacIntel,60,,,m,1.494,0,47,47,47,1
,,,,z,1.566,0,48,48,48,1,paints/images/245.jpg,paints/images/358.jpg,49,Kristina,1,2020-11-20_15h50.42.170,test3,2020.2.4,MacIntel,60,,,z,1.566,0,48,48,48,1
,,,,z,1.395,0,49,49,49,1,paints/images/347.jpg,paints/images/143.jpg,50,Kristina,1,2020-11-20_15h50.42.170,test3,2020.2.4,MacIntel,60,,,z,1.395,0,49,49,49,1
,,,,z,0.868,0,50,50,50,1,paints/images/352.jpg,paints/images/145.jpg,51,Kristina,1,2020-11-20_15h50.42.170,test3,2020.2.4,MacIntel,60,,,z,0.868,0,50,50,50,1
,,,,m,1.872,0,51,51,51,1,paints/images/69.jpg,paints/images/162.jpg,52,Kristina,1,2020-11-20_15h50.42.170,test3,2020.2.4,MacIntel,60,,,m,1.872,0,51,51,51,1
,,,,m,0.807,0,52,52,52,1,paints/images/381.jpg,paints/images/202.jpg,53,Kristina,1,2020-11-20_15h50.42.170,test3,2020.2.4,MacIntel,60,,,m,0.807,0,52,52,52,1
,,,,z,0.973,0,53,53,53,1,paints/images/361.jpg,paints/images/340.jpg,54,Kristina,1,2020-11-20_15h50.42.170,test3,2020.2.4,MacIntel,60,,,z,0.973,0,53,53,53,1
,,,,z,1.197,0,54,54,54,1,paints/images/217.jpg,paints/images/9.jpg,55,Kristina,1,2020-11-20_15h50.42.170,test3,2020.2.4,MacIntel,60,,,z,1.197,0,54,54,54,1
,,,,m,1.604,0,55,55,55,1,paints/images/8.jpg,paints/images/409.jpg,56,Kristina,1,2020-11-20_15h50.42.170,test3,2020.2.4,MacIntel,60,,,m,1.604,0,55,55,55,1
,,,,m,1.518,0,56,56,56,1,paints/images/59.jpg,paints/images/33.jpg,57,Kristina,1,2020-11-20_15h50.42.170,test3,2020.2.4,MacIntel,60,,,m,1.518,0,56,56,56,1
,,,,z,0.935,0,57,57,57,1,paints/images/21.jpg,paints/images/311.jpg,58,Kristina,1,2020-11-20_15h50.42.170,test3,2020.2.4,MacIntel,60,,,z,0.935,0,57,57,57,1
,,,,z,1.107,0,58,58,58,1,paints/images/408.jpg,paints/images/31.jpg,59,Kristina,1,2020-11-20_15h50.42.170,test3,2020.2.4,MacIntel,60,,,z,1.107,0,58,58,58,1
,,,,m,1.185,0,59,59,59,1,paints/images/98.jpg,paints/images/3.jpg,60,Kristina,1,2020-11-20_15h50.42.170,test3,2020.2.4,MacIntel,60,,,m,1.185,0,59,59,59,1
,,,,z,1.804,0,60,60,60,1,paints/images/336.jpg,paints/images/138.jpg,61,Kristina,1,2020-11-20_15h50.42.170,test3,2020.2.4,MacIntel,60,,,z,1.804,0,60,60,60,1
,,,,m,3.351,0,61,61,61,1,paints/images/186.jpg,paints/images/395.jpg,62,Kristina,1,2020-11-20_15h50.42.170,test3,2020.2.4,MacIntel,60,,,m,3.351,0,61,61,61,1
,,,,m,1.43,0,62,62,62,1,paints/images/76.jpg,paints/images/405.jpg,63,Kristina,1,2020-11-20_15h50.42.170,test3,2020.2.4,MacIntel,60,,,m,1.43,0,62,62,62,1
,,,,z,3.179,0,63,63,63,1,paints/images/171.jpg,paints/images/381.jpg,64,Kristina,1,2020-11-20_15h50.42.170,test3,2020.2.4,MacIntel,60,,,z,3.179,0,63,63,63,1
,,,,z,1.812,0,64,64,64,1,paints/images/220.jpg,paints/images/70.jpg,65,Kristina,1,2020-11-20_15h50.42.170,test3,2020.2.4,MacIntel,60,,,z,1.812,0,64,64,64,1
,,,,m,1.759,0,65,65,65,1,paints/images/337.jpg,paints/images/339.jpg,66,Kristina,1,2020-11-20_15h50.42.170,test3,2020.2.4,MacIntel,60,,,m,1.759,0,65,65,65,1
,,,,z,1.423,0,66,66,66,1,paints/images/258.jpg,paints/images/85.jpg,67,Kristina,1,2020-11-20_15h50.42.170,test3,2020.2.4,MacIntel,60,,,z,1.423,0,66,66,66,1
,,,,m,1.157,0,67,67,67,1,paints/images/273.jpg,paints/images/113.jpg,68,Kristina,1,2020-11-20_15h50.42.170,test3,2020.2.4,MacIntel,60,,,m,1.157,0,67,67,67,1
,,,,z,0.996,0,68,68,68,1,paints/images/353.jpg,paints/images/368.jpg,69,Kristina,1,2020-11-20_15h50.42.170,test3,2020.2.4,MacIntel,60,,,z,0.996,0,68,68,68,1
,,,,z,1.642,0,69,69,69,1,paints/images/187.jpg,paints/images/86.jpg,70,Kristina,1,2020-11-20_15h50.42.170,test3,2020.2.4,MacIntel,60,,,z,1.642,0,69,69,69,1
,,,,m,1.404,0,70,70,70,1,paints/images/176.jpg,paints/images/193.jpg,71,Kristina,1,2020-11-20_15h50.42.170,test3,2020.2.4,MacIntel,60,,,m,1.404,0,70,70,70,1
,,,,m,1.125,0,71,71,71,1,paints/images/175.jpg,paints/images/194.jpg,72,Kristina,1,2020-11-20_15h50.42.170,test3,2020.2.4,MacIntel,60,,,m,1.125,0,71,71,71,1
,,,,z,0.911,0,72,72,72,1,paints/images/407.jpg,paints/images/81.jpg,73,Kristina,1,2020-11-20_15h50.42.170,test3,2020.2.4,MacIntel,60,,,z,0.911,0,72,72,72,1
,,,,z,1.316,0,73,73,73,1,paints/images/276.jpg,paints/images/77.jpg,74,Kristina,1,2020-11-20_15h50.42.170,test3,2020.2.4,MacIntel,60,,,z,1.316,0,73,73,73,1
,,,,z,1.16,0,74,74,74,1,paints/images/291.jpg,paints/images/314.jpg,75,Kristina,1,2020-11-20_15h50.42.170,test3,2020.2.4,MacIntel,60,,,z,1.16,0,74,74,74,1
,,,,z,1.759,0,75,75,75,1,paints/images/127.jpg,paints/images/36.jpg,76,Kristina,1,2020-11-20_15h50.42.170,test3,2020.2.4,MacIntel,60,,,z,1.759,0,75,75,75,1
,,,,m,1.18,0,76,76,76,1,paints/images/372.jpg,paints/images/161.jpg,77,Kristina,1,2020-11-20_15h50.42.170,test3,2020.2.4,MacIntel,60,,,m,1.18,0,76,76,76,1
,,,,z,0.97,0,77,77,77,1,paints/images/283.jpg,paints/images/350.jpg,78,Kristina,1,2020-11-20_15h50.42.170,test3,2020.2.4,MacIntel,60,,,z,0.97,0,77,77,77,1
,,,,z,1.276,0,78,78,78,1,paints/images/106.jpg,paints/images/68.jpg,79,Kristina,1,2020-11-20_15h50.42.170,test3,2020.2.4,MacIntel,60,,,z,1.276,0,78,78,78,1
,,,,m,1.409,0,79,79,79,1,paints/images/224.jpg,paints/images/266.jpg,80,Kristina,1,2020-11-20_15h50.42.170,test3,2020.2.4,MacIntel,60,,,m,1.409,0,79,79,79,1
,,,,z,1.463,0,80,80,80,1,paints/images/375.jpg,paints/images/264.jpg,81,Kristina,1,2020-11-20_15h50.42.170,test3,2020.2.4,MacIntel,60,,,z,1.463,0,80,80,80,1
,,,,m,1.684,0,81,81,81,1,paints/images/47.jpg,paints/images/87.jpg,82,Kristina,1,2020-11-20_15h50.42.170,test3,2020.2.4,MacIntel,60,,,m,1.684,0,81,81,81,1
,,,,z,0.988,0,82,82,82,1,paints/images/38.jpg,paints/images/298.jpg,83,Kristina,1,2020-11-20_15h50.42.170,test3,2020.2.4,MacIntel,60,,,z,0.988,0,82,82,82,1
,,,,z,0.975,0,83,83,83,1,paints/images/161.jpg,paints/images/28.jpg,84,Kristina,1,2020-11-20_15h50.42.170,test3,2020.2.4,MacIntel,60,,,z,0.975,0,83,83,83,1
,,,,m,2.014,0,84,84,84,1,paints/images/298.jpg,paints/images/345.jpg,85,Kristina,1,2020-11-20_15h50.42.170,test3,2020.2.4,MacIntel,60,,,m,2.014,0,84,84,84,1
,,,,z,0.836,0,85,85,85,1,paints/images/163.jpg,paints/images/205.jpg,86,Kristina,1,2020-11-20_15h50.42.170,test3,2020.2.4,MacIntel,60,,,z,0.836,0,85,85,85,1
,,,,z,1.119,0,86,86,86,1,paints/images/121.jpg,paints/images/252.jpg,87,Kristina,1,2020-11-20_15h50.42.170,test3,2020.2.4,MacIntel,60,,,z,1.119,0,86,86,86,1
,,,,z,1.797,0,87,87,87,1,paints/images/247.jpg,paints/images/95.jpg,88,Kristina,1,2020-11-20_15h50.42.170,test3,2020.2.4,MacIntel,60,,,z,1.797,0,87,87,87,1
,,,,z,1.966,0,88,88,88,1,paints/images/321.jpg,paints/images/150.jpg,89,Kristina,1,2020-11-20_15h50.42.170,test3,2020.2.4,MacIntel,60,,,z,1.966,0,88,88,88,1
,,,,m,1.562,0,89,89,89,1,paints/images/46.jpg,paints/images/226.jpg,90,Kristina,1,2020-11-20_15h50.42.170,test3,2020.2.4,MacIntel,60,,,m,1.562,0,89,89,89,1
,,,,m,1.617,0,90,90,90,1,paints/images/154.jpg,paints/images/263.jpg,91,Kristina,1,2020-11-20_15h50.42.170,test3,2020.2.4,MacIntel,60,,,m,1.617,0,90,90,90,1
,,,,z,1.577,0,91,91,91,1,paints/images/191.jpg,paints/images/158.jpg,92,Kristina,1,2020-11-20_15h50.42.170,test3,2020.2.4,MacIntel,60,,,z,1.577,0,91,91,91,1
,,,,m,1.049,0,92,92,92,1,paints/images/49.jpg,paints/images/227.jpg,93,Kristina,1,2020-11-20_15h50.42.170,test3,2020.2.4,MacIntel,60,,,m,1.049,0,92,92,92,1
,,,,z,1.015,0,93,93,93,1,paints/images/124.jpg,paints/images/89.jpg,94,Kristina,1,2020-11-20_15h50.42.170,test3,2020.2.4,MacIntel,60,,,z,1.015,0,93,93,93,1
,,,,m,1.678,0,94,94,94,1,paints/images/390.jpg,paints/images/43.jpg,95,Kristina,1,2020-11-20_15h50.42.170,test3,2020.2.4,MacIntel,60,,,m,1.678,0,94,94,94,1
,,,,m,1.37,0,95,95,95,1,paints/images/42.jpg,paints/images/268.jpg,96,Kristina,1,2020-11-20_15h50.42.170,test3,2020.2.4,MacIntel,60,,,m,1.37,0,95,95,95,1
,,,,m,1.704,0,96,96,96,1,paints/images/113.jpg,paints/images/386.jpg,97,Kristina,1,2020-11-20_15h50.42.170,test3,2020.2.4,MacIntel,60,,,m,1.704,0,96,96,96,1
,,,,z,1.737,0,97,97,97,1,paints/images/287.jpg,paints/images/307.jpg,98,Kristina,1,2020-11-20_15h50.42.170,test3,2020.2.4,MacIntel,60,,,z,1.737,0,97,97,97,1
,,,,z,2.832,0,98,98,98,1,paints/images/134.jpg,paints/images/300.jpg,99,Kristina,1,2020-11-20_15h50.42.170,test3,2020.2.4,MacIntel,60,,,z,2.832,0,98,98,98,1
,,,,m,1.298,0,99,99,99,1,paints/images/60.jpg,paints/images/206.jpg,100,Kristina,1,2020-11-20_15h50.42.170,test3,2020.2.4,MacIntel,60,,,m,1.298,0,99,99,99,1
,,,,m,1.505,0,100,100,100,1,paints/images/384.jpg,paints/images/335.jpg,101,Kristina,1,2020-11-20_15h50.42.170,test3,2020.2.4,MacIntel,60,,,m,1.505,0,100,100,100,1
,,,,z,1.052,0,101,101,101,1,paints/images/326.jpg,paints/images/139.jpg,102,Kristina,1,2020-11-20_15h50.42.170,test3,2020.2.4,MacIntel,60,,,z,1.052,0,101,101,101,1
,,,,z,1.928,0,102,102,102,1,paints/images/166.jpg,paints/images/374.jpg,103,Kristina,1,2020-11-20_15h50.42.170,test3,2020.2.4,MacIntel,60,,,z,1.928,0,102,102,102,1
,,,,z,3.987,0,103,103,103,1,paints/images/360.jpg,paints/images/10.jpg,104,Kristina,1,2020-11-20_15h50.42.170,test3,2020.2.4,MacIntel,60,,,z,3.987,0,103,103,103,1
,,,,m,2.483,0,104,104,104,1,paints/images/158.jpg,paints/images/149.jpg,105,Kristina,1,2020-11-20_15h50.42.170,test3,2020.2.4,MacIntel,60,,,m,2.483,0,104,104,104,1
,,,,z,2.122,0,105,105,105,1,paints/images/159.jpg,paints/images/362.jpg,106,Kristina,1,2020-11-20_15h50.42.170,test3,2020.2.4,MacIntel,60,,,z,2.122,0,105,105,105,1
,,,,z,1.047,0,106,106,106,1,paints/images/214.jpg,paints/images/116.jpg,107,Kristina,1,2020-11-20_15h50.42.170,test3,2020.2.4,MacIntel,60,,,z,1.047,0,106,106,106,1
,,,,m,1.808,0,107,107,107,1,paints/images/256.jpg,paints/images/323.jpg,108,Kristina,1,2020-11-20_15h50.42.170,test3,2020.2.4,MacIntel,60,,,m,1.808,0,107,107,107,1
,,,,z,2.157,0,108,108,108,1,paints/images/36.jpg,paints/images/157.jpg,109,Kristina,1,2020-11-20_15h50.42.170,test3,2020.2.4,MacIntel,60,,,z,2.157,0,108,108,108,1
,,,,z,1.048,0,109,109,109,1,paints/images/101.jpg,paints/images/126.jpg,110,Kristina,1,2020-11-20_15h50.42.170,test3,2020.2.4,MacIntel,60,,,z,1.048,0,109,109,109,1
,,,,m,2.878,0,110,110,110,1,paints/images/265.jpg,paints/images/35.jpg,111,Kristina,1,2020-11-20_15h50.42.170,test3,2020.2.4,MacIntel,60,,,m,2.878,0,110,110,110,1
,,,,m,2.408,0,111,111,111,1,paints/images/392.jpg,paints/images/233.jpg,112,Kristina,1,2020-11-20_15h50.42.170,test3,2020.2.4,MacIntel,60,,,m,2.408,0,111,111,111,1
,,,,z,0.832,0,112,112,112,1,paints/images/251.jpg,paints/images/12.jpg,113,Kristina,1,2020-11-20_15h50.42.170,test3,2020.2.4,MacIntel,60,,,z,0.832,0,112,112,112,1
,,,,m,0.98,0,113,113,113,1,paints/images/12.jpg,paints/images/144.jpg,114,Kristina,1,2020-11-20_15h50.42.170,test3,2020.2.4,MacIntel,60,,,m,0.98,0,113,113,113,1
,,,,m,1.52,0,114,114,114,1,paints/images/133.jpg,paints/images/331.jpg,115,Kristina,1,2020-11-20_15h50.42.170,test3,2020.2.4,MacIntel,60,,,m,1.52,0,114,114,114,1
,,,,z,1.499,0,115,115,115,1,paints/images/383.jpg,paints/images/99.jpg,116,Kristina,1,2020-11-20_15h50.42.170,test3,2020.2.4,MacIntel,60,,,z,1.499,0,115,115,115,1
,,,,z,1.225,0,116,116,116,1,paints/images/211.jpg,paints/images/303.jpg,117,Kristina,1,2020-11-20_15h50.42.170,test3,2020.2.4,MacIntel,60,,,z,1.225,0,116,116,116,1
,,,,z,0.766,0,117,117,117,1,paints/images/201.jpg,paints/images/238.jpg,118,Kristina,1,2020-11-20_15h50.42.170,test3,2020.2.4,MacIntel,60,,,z,0.766,0,117,117,117,1
,,,,m,0.813,0,118,118,118,1,paints/images/205.jpg,paints/images/102.jpg,119,Kristina,1,2020-11-20_15h50.42.170,test3,2020.2.4,MacIntel,60,,,m,0.813,0,118,118,118,1
,,,,m,1.028,0,119,119,119,1,paints/images/270.jpg,paints/images/322.jpg,120,Kristina,1,2020-11-20_15h50.42.170,test3,2020.2.4,MacIntel,60,,,m,1.028,0,119,119,119,1
,,,,z,0.941,0,120,120,120,1,paints/images/341.jpg,paints/images/248.jpg,121,Kristina,1,2020-11-20_15h50.42.170,test3,2020.2.4,MacIntel,60,,,z,0.941,0,120,120,120,1
,,,,m,0.828,0,121,121,121,1,paints/images/141.jpg,paints/images/94.jpg,122,Kristina,1,2020-11-20_15h50.42.170,test3,2020.2.4,MacIntel,60,,,m,0.828,0,121,121,121,1
,,,,z,1.151,0,122,122,122,1,paints/images/83.jpg,paints/images/327.jpg,123,Kristina,1,2020-11-20_15h50.42.170,test3,2020.2.4,MacIntel,60,,,z,1.151,0,122,122,122,1
,,,,m,1.281,0,123,123,123,1,paints/images/327.jpg,paints/images/110.jpg,124,Kristina,1,2020-11-20_15h50.42.170,test3,2020.2.4,MacIntel,60,,,m,1.281,0,123,123,123,1
,,,,z,1.412,0,124,124,124,1,paints/images/157.jpg,paints/images/79.jpg,125,Kristina,1,2020-11-20_15h50.42.170,test3,2020.2.4,MacIntel,60,,,z,1.412,0,124,124,124,1
,,,,z,0.848,0,125,125,125,1,paints/images/193.jpg,paints/images/74.jpg,126,Kristina,1,2020-11-20_15h50.42.170,test3,2020.2.4,MacIntel,60,,,z,0.848,0,125,125,125,1
,,,,m,1.514,0,126,126,126,1,paints/images/140.jpg,paints/images/292.jpg,127,Kristina,1,2020-11-20_15h50.42.170,test3,2020.2.4,MacIntel,60,,,m,1.514,0,126,126,126,1
,,,,m,2.41,0,127,127,127,1,paints/images/107.jpg,paints/images/92.jpg,128,Kristina,1,2020-11-20_15h50.42.170,test3,2020.2.4,MacIntel,60,,,m,2.41,0,127,127,127,1
,,,,m,0.98,0,128,128,128,1,paints/images/7.jpg,paints/images/56.jpg,129,Kristina,1,2020-11-20_15h50.42.170,test3,2020.2.4,MacIntel,60,,,m,0.98,0,128,128,128,1
,,,,z,1.419,0,129,129,129,1,paints/images/177.jpg,paints/images/141.jpg,130,Kristina,1,2020-11-20_15h50.42.170,test3,2020.2.4,MacIntel,60,,,z,1.419,0,129,129,129,1
,,,,z,3.211,0,130,130,130,1,paints/images/244.jpg,paints/images/250.jpg,131,Kristina,1,2020-11-20_15h50.42.170,test3,2020.2.4,MacIntel,60,,,z,3.211,0,130,130,130,1
,,,,z,1.043,0,131,131,131,1,paints/images/253.jpg,paints/images/8.jpg,132,Kristina,1,2020-11-20_15h50.42.170,test3,2020.2.4,MacIntel,60,,,z,1.043,0,131,131,131,1
,,,,m,1.241,0,132,132,132,1,paints/images/136.jpg,paints/images/108.jpg,133,Kristina,1,2020-11-20_15h50.42.170,test3,2020.2.4,MacIntel,60,,,m,1.241,0,132,132,132,1
,,,,z,1.121,0,133,133,133,1,paints/images/165.jpg,paints/images/147.jpg,134,Kristina,1,2020-11-20_15h50.42.170,test3,2020.2.4,MacIntel,60,,,z,1.121,0,133,133,133,1
,,,,z,0.779,0,134,134,134,1,paints/images/39.jpg,paints/images/387.jpg,135,Kristina,1,2020-11-20_15h50.42.170,test3,2020.2.4,MacIntel,60,,,z,0.779,0,134,134,134,1
,,,,m,1.142,0,135,135,135,1,paints/images/271.jpg,paints/images/125.jpg,136,Kristina,1,2020-11-20_15h50.42.170,test3,2020.2.4,MacIntel,60,,,m,1.142,0,135,135,135,1
,,,,z,1.318,0,136,136,136,1,paints/images/90.jpg,paints/images/130.jpg,137,Kristina,1,2020-11-20_15h50.42.170,test3,2020.2.4,MacIntel,60,,,z,1.318,0,136,136,136,1
,,,,z,0.85,0,137,137,137,1,paints/images/362.jpg,paints/images/60.jpg,138,Kristina,1,2020-11-20_15h50.42.170,test3,2020.2.4,MacIntel,60,,,z,0.85,0,137,137,137,1
,,,,z,1.349,0,138,138,138,1,paints/images/218.jpg,paints/images/153.jpg,139,Kristina,1,2020-11-20_15h50.42.170,test3,2020.2.4,MacIntel,60,,,z,1.349,0,138,138,138,1
,,,,z,1.282,0,139,139,139,1,paints/images/18.jpg,paints/images/324.jpg,140,Kristina,1,2020-11-20_15h50.42.170,test3,2020.2.4,MacIntel,60,,,z,1.282,0,139,139,139,1
,,,,m,1.062,0,140,140,140,1,paints/images/29.jpg,paints/images/120.jpg,141,Kristina,1,2020-11-20_15h50.42.170,test3,2020.2.4,MacIntel,60,,,m,1.062,0,140,140,140,1
,,,,z,1.24,0,141,141,141,1,paints/images/155.jpg,paints/images/142.jpg,142,Kristina,1,2020-11-20_15h50.42.170,test3,2020.2.4,MacIntel,60,,,z,1.24,0,141,141,141,1
,,,,z,0.761,0,142,142,142,1,paints/images/148.jpg,paints/images/396.jpg,143,Kristina,1,2020-11-20_15h50.42.170,test3,2020.2.4,MacIntel,60,,,z,0.761,0,142,142,142,1
,,,,m,1.156,0,143,143,143,1,paints/images/373.jpg,paints/images/218.jpg,144,Kristina,1,2020-11-20_15h50.42.170,test3,2020.2.4,MacIntel,60,,,m,1.156,0,143,143,143,1
,,,,m,5.502,0,144,144,144,1,paints/images/231.jpg,paints/images/73.jpg,145,Kristina,1,2020-11-20_15h50.42.170,test3,2020.2.4,MacIntel,60,,,m,5.502,0,144,144,144,1
,,,,z,1.71,0,145,145,145,1,paints/images/240.jpg,paints/images/356.jpg,146,Kristina,1,2020-11-20_15h50.42.170,test3,2020.2.4,MacIntel,60,,,z,1.71,0,145,145,145,1
,,,,z,1.537,0,146,146,146,1,paints/images/332.jpg,paints/images/347.jpg,147,Kristina,1,2020-11-20_15h50.42.170,test3,2020.2.4,MacIntel,60,,,z,1.537,0,146,146,146,1
,,,,z,1.804,0,147,147,147,1,paints/images/254.jpg,paints/images/310.jpg,148,Kristina,1,2020-11-20_15h50.42.170,test3,2020.2.4,MacIntel,60,,,z,1.804,0,147,147,147,1
,,,,z,1.116,0,148,148,148,1,paints/images/405.jpg,paints/images/385.jpg,149,Kristina,1,2020-11-20_15h50.42.170,test3,2020.2.4,MacIntel,60,,,z,1.116,0,148,148,148,1
,,,,z,1.199,0,149,149,149,1,paints/images/345.jpg,paints/images/274.jpg,150,Kristina,1,2020-11-20_15h50.42.170,test3,2020.2.4,MacIntel,60,,,z,1.199,0,149,149,149,1
,,,,z,1.117,0,150,150,150,1,paints/images/363.jpg,paints/images/18.jpg,151,Kristina,1,2020-11-20_15h50.42.170,test3,2020.2.4,MacIntel,60,,,z,1.117,0,150,150,150,1
,,,,m,1.033,0,151,151,151,1,paints/images/37.jpg,paints/images/53.jpg,152,Kristina,1,2020-11-20_15h50.42.170,test3,2020.2.4,MacIntel,60,,,m,1.033,0,151,151,151,1
,,,,m,1.274,0,152,152,152,1,paints/images/315.jpg,paints/images/319.jpg,153,Kristina,1,2020-11-20_15h50.42.170,test3,2020.2.4,MacIntel,60,,,m,1.274,0,152,152,152,1
,,,,m,1.255,0,153,153,153,1,paints/images/74.jpg,paints/images/403.jpg,154,Kristina,1,2020-11-20_15h50.42.170,test3,2020.2.4,MacIntel,60,,,m,1.255,0,153,153,153,1
,,,,m,1.311,0,154,154,154,1,paints/images/156.jpg,paints/images/246.jpg,155,Kristina,1,2020-11-20_15h50.42.170,test3,2020.2.4,MacIntel,60,,,m,1.311,0,154,154,154,1
,,,,z,1.628,0,155,155,155,1,paints/images/285.jpg,paints/images/270.jpg,156,Kristina,1,2020-11-20_15h50.42.170,test3,2020.2.4,MacIntel,60,,,z,1.628,0,155,155,155,1
,,,,z,3.291,0,156,156,156,1,paints/images/17.jpg,paints/images/398.jpg,157,Kristina,1,2020-11-20_15h50.42.170,test3,2020.2.4,MacIntel,60,,,z,3.291,0,156,156,156,1
,,,,z,1.266,0,157,157,157,1,paints/images/335.jpg,paints/images/27.jpg,158,Kristina,1,2020-11-20_15h50.42.170,test3,2020.2.4,MacIntel,60,,,z,1.266,0,157,157,157,1
,,,,z,1.071,0,158,158,158,1,paints/images/350.jpg,paints/images/156.jpg,159,Kristina,1,2020-11-20_15h50.42.170,test3,2020.2.4,MacIntel,60,,,z,1.071,0,158,158,158,1
,,,,m,2.416,0,159,159,159,1,paints/images/31.jpg,paints/images/231.jpg,160,Kristina,1,2020-11-20_15h50.42.170,test3,2020.2.4,MacIntel,60,,,m,2.416,0,159,159,159,1
,,,,z,1.227,0,160,160,160,1,paints/images/114.jpg,paints/images/333.jpg,161,Kristina,1,2020-11-20_15h50.42.170,test3,2020.2.4,MacIntel,60,,,z,1.227,0,160,160,160,1
,,,,m,1.084,0,161,161,161,1,paints/images/79.jpg,paints/images/408.jpg,162,Kristina,1,2020-11-20_15h50.42.170,test3,2020.2.4,MacIntel,60,,,m,1.084,0,161,161,161,1
,,,,m,4.645,0,162,162,162,1,paints/images/338.jpg,paints/images/279.jpg,163,Kristina,1,2020-11-20_15h50.42.170,test3,2020.2.4,MacIntel,60,,,m,4.645,0,162,162,162,1
,,,,z,2.948,0,163,163,163,1,paints/images/354.jpg,paints/images/304.jpg,164,Kristina,1,2020-11-20_15h50.42.170,test3,2020.2.4,MacIntel,60,,,z,2.948,0,163,163,163,1
,,,,m,1.477,0,164,164,164,1,paints/images/128.jpg,paints/images/276.jpg,165,Kristina,1,2020-11-20_15h50.42.170,test3,2020.2.4,MacIntel,60,,,m,1.477,0,164,164,164,1
,,,,m,1.716,0,165,165,165,1,paints/images/35.jpg,paints/images/188.jpg,166,Kristina,1,2020-11-20_15h50.42.170,test3,2020.2.4,MacIntel,60,,,m,1.716,0,165,165,165,1
,,,,z,1.696,0,166,166,166,1,paints/images/16.jpg,paints/images/29.jpg,167,Kristina,1,2020-11-20_15h50.42.170,test3,2020.2.4,MacIntel,60,,,z,1.696,0,166,166,166,1
,,,,z,1.477,0,167,167,167,1,paints/images/119.jpg,paints/images/251.jpg,168,Kristina,1,2020-11-20_15h50.42.170,test3,2020.2.4,MacIntel,60,,,z,1.477,0,167,167,167,1
,,,,z,3.491,0,168,168,168,1,paints/images/207.jpg,paints/images/65.jpg,169,Kristina,1,2020-11-20_15h50.42.170,test3,2020.2.4,MacIntel,60,,,z,3.491,0,168,168,168,1
,,,,z,1.151,0,169,169,169,1,paints/images/173.jpg,paints/images/373.jpg,170,Kristina,1,2020-11-20_15h50.42.170,test3,2020.2.4,MacIntel,60,,,z,1.151,0,169,169,169,1
,,,,z,1.322,0,170,170,170,1,paints/images/135.jpg,paints/images/196.jpg,171,Kristina,1,2020-11-20_15h50.42.170,test3,2020.2.4,MacIntel,60,,,z,1.322,0,170,170,170,1
,,,,m,1.707,0,171,171,171,1,paints/images/55.jpg,paints/images/316.jpg,172,Kristina,1,2020-11-20_15h50.42.170,test3,2020.2.4,MacIntel,60,,,m,1.707,0,171,171,171,1
,,,,z,1.378,0,172,172,172,1,paints/images/343.jpg,paints/images/383.jpg,173,Kristina,1,2020-11-20_15h50.42.170,test3,2020.2.4,MacIntel,60,,,z,1.378,0,172,172,172,1
,,,,z,1.385,0,173,173,173,1,paints/images/203.jpg,paints/images/186.jpg,174,Kristina,1,2020-11-20_15h50.42.170,test3,2020.2.4,MacIntel,60,,,z,1.385,0,173,173,173,1
,,,,m,1.294,0,174,174,174,1,paints/images/123.jpg,paints/images/128.jpg,175,Kristina,1,2020-11-20_15h50.42.170,test3,2020.2.4,MacIntel,60,,,m,1.294,0,174,174,174,1
,,,,m,1.124,0,175,175,175,1,paints/images/391.jpg,paints/images/208.jpg,176,Kristina,1,2020-11-20_15h50.42.170,test3,2020.2.4,MacIntel,60,,,m,1.124,0,175,175,175,1
,,,,z,0.865,0,176,176,176,1,paints/images/105.jpg,paints/images/313.jpg,177,Kristina,1,2020-11-20_15h50.42.170,test3,2020.2.4,MacIntel,60,,,z,0.865,0,176,176,176,1
,,,,m,1.719,0,177,177,177,1,paints/images/184.jpg,paints/images/69.jpg,178,Kristina,1,2020-11-20_15h50.42.170,test3,2020.2.4,MacIntel,60,,,m,1.719,0,177,177,177,1
,,,,m,0.784,0,178,178,178,1,paints/images/63.jpg,paints/images/191.jpg,179,Kristina,1,2020-11-20_15h50.42.170,test3,2020.2.4,MacIntel,60,,,m,0.784,0,178,178,178,1
,,,,m,1.303,0,179,179,179,1,paints/images/85.jpg,paints/images/390.jpg,180,Kristina,1,2020-11-20_15h50.42.170,test3,2020.2.4,MacIntel,60,,,m,1.303,0,179,179,179,1
,,,,z,0.968,0,180,180,180,1,paints/images/179.jpg,paints/images/177.jpg,181,Kristina,1,2020-11-20_15h50.42.170,test3,2020.2.4,MacIntel,60,,,z,0.968,0,180,180,180,1
,,,,m,1.329,0,181,181,181,1,paints/images/320.jpg,paints/images/171.jpg,182,Kristina,1,2020-11-20_15h50.42.170,test3,2020.2.4,MacIntel,60,,,m,1.329,0,181,181,181,1
,,,,m,1.713,0,182,182,182,1,paints/images/77.jpg,paints/images/406.jpg,183,Kristina,1,2020-11-20_15h50.42.170,test3,2020.2.4,MacIntel,60,,,m,1.713,0,182,182,182,1
,,,,z,0.912,0,183,183,183,1,paints/images/66.jpg,paints/images/255.jpg,184,Kristina,1,2020-11-20_15h50.42.170,test3,2020.2.4,MacIntel,60,,,z,0.912,0,183,183,183,1
,,,,z,0.863,0,184,184,184,1,paints/images/308.jpg,paints/images/41.jpg,185,Kristina,1,2020-11-20_15h50.42.170,test3,2020.2.4,MacIntel,60,,,z,0.863,0,184,184,184,1
,,,,m,0.888,0,185,185,185,1,paints/images/260.jpg,paints/images/297.jpg,186,Kristina,1,2020-11-20_15h50.42.170,test3,2020.2.4,MacIntel,60,,,m,0.888,0,185,185,185,1
,,,,m,1.641,0,186,186,186,1,paints/images/126.jpg,paints/images/273.jpg,187,Kristina,1,2020-11-20_15h50.42.170,test3,2020.2.4,MacIntel,60,,,m,1.641,0,186,186,186,1
,,,,m,1.451,0,187,187,187,1,paints/images/68.jpg,paints/images/189.jpg,188,Kristina,1,2020-11-20_15h50.42.170,test3,2020.2.4,MacIntel,60,,,m,1.451,0,187,187,187,1
,,,,m,1.549,0,188,188,188,1,paints/images/144.jpg,paints/images/280.jpg,189,Kristina,1,2020-11-20_15h50.42.170,test3,2020.2.4,MacIntel,60,,,m,1.549,0,188,188,188,1
,,,,z,0.924,0,189,189,189,1,paints/images/24.jpg,paints/images/389.jpg,190,Kristina,1,2020-11-20_15h50.42.170,test3,2020.2.4,MacIntel,60,,,z,0.924,0,189,189,189,1
,,,,z,0.864,0,190,190,190,1,paints/images/222.jpg,paints/images/7.jpg,191,Kristina,1,2020-11-20_15h50.42.170,test3,2020.2.4,MacIntel,60,,,z,0.864,0,190,190,190,1
,,,,z,1.017,0,191,191,191,1,paints/images/282.jpg,paints/images/278.jpg,192,Kristina,1,2020-11-20_15h50.42.170,test3,2020.2.4,MacIntel,60,,,z,1.017,0,191,191,191,1
,,,,z,1.642,0,192,192,192,1,paints/images/190.jpg,paints/images/61.jpg,193,Kristina,1,2020-11-20_15h50.42.170,test3,2020.2.4,MacIntel,60,,,z,1.642,0,192,192,192,1
,,,,z,1.76,0,193,193,193,1,paints/images/212.jpg,paints/images/402.jpg,194,Kristina,1,2020-11-20_15h50.42.170,test3,2020.2.4,MacIntel,60,,,z,1.76,0,193,193,193,1
,,,,m,1.929,0,194,194,194,1,paints/images/80.jpg,paints/images/410.jpg,195,Kristina,1,2020-11-20_15h50.42.170,test3,2020.2.4,MacIntel,60,,,m,1.929,0,194,194,194,1
,,,,m,1.692,0,195,195,195,1,paints/images/252.jpg,paints/images/382.jpg,196,Kristina,1,2020-11-20_15h50.42.170,test3,2020.2.4,MacIntel,60,,,m,1.692,0,195,195,195,1
,,,,z,1.452,0,196,196,196,1,paints/images/71.jpg,paints/images/337.jpg,197,Kristina,1,2020-11-20_15h50.42.170,test3,2020.2.4,MacIntel,60,,,z,1.452,0,196,196,196,1
,,,,z,1.411,0,197,197,197,1,paints/images/264.jpg,paints/images/118.jpg,198,Kristina,1,2020-11-20_15h50.42.170,test3,2020.2.4,MacIntel,60,,,z,1.411,0,197,197,197,1
,,,,z,1.573,0,198,198,198,1,paints/images/180.jpg,paints/images/357.jpg,199,Kristina,1,2020-11-20_15h50.42.170,test3,2020.2.4,MacIntel,60,,,z,1.573,0,198,198,198,1
,,,,m,1.431,0,199,199,199,1,paints/images/357.jpg,paints/images/15.jpg,200,Kristina,1,2020-11-20_15h50.42.170,test3,2020.2.4,MacIntel,60,,,m,1.431,0,199,199,199,1
,,,,m,0.926,0,200,200,200,1,paints/images/401.jpg,paints/images/220.jpg,201,Kristina,1,2020-11-20_15h50.42.170,test3,2020.2.4,MacIntel,60,,,m,0.926,0,200,200,200,1
,,,,m,1.153,0,201,201,201,1,paints/images/95.jpg,paints/images/135.jpg,202,Kristina,1,2020-11-20_15h50.42.170,test3,2020.2.4,MacIntel,60,,,m,1.153,0,201,201,201,1
,,,,m,2.449,0,202,202,202,1,paints/images/152.jpg,paints/images/234.jpg,203,Kristina,1,2020-11-20_15h50.42.170,test3,2020.2.4,MacIntel,60,,,m,2.449,0,202,202,202,1
,,,,z,1.744,0,203,203,203,1,paints/images/30.jpg,paints/images/88.jpg,204,Kristina,1,2020-11-20_15h50.42.170,test3,2020.2.4,MacIntel,60,,,z,1.744,0,203,203,203,1
,,,,z,1.383,0,204,204,204,1,paints/images/194.jpg,paints/images/392.jpg,205,Kristina,1,2020-11-20_15h50.42.170,test3,2020.2.4,MacIntel,60,,,z,1.383,0,204,204,204,1
,,,,z,0.837,0,205,205,205,1,paints/images/351.jpg,paints/images/103.jpg,206,Kristina,1,2020-11-20_15h50.42.170,test3,2020.2.4,MacIntel,60,,,z,0.837,0,205,205,205,1
,,,,z,1.142,0,206,206,206,1,paints/images/236.jpg,paints/images/369.jpg,207,Kristina,1,2020-11-20_15h50.42.170,test3,2020.2.4,MacIntel,60,,,z,1.142,0,206,206,206,1
,,,,z,1.45,0,207,207,207,1,paints/images/219.jpg,paints/images/136.jpg,208,Kristina,1,2020-11-20_15h50.42.170,test3,2020.2.4,MacIntel,60,,,z,1.45,0,207,207,207,1
,,,,z,0.974,0,208,208,208,1,paints/images/306.jpg,paints/images/239.jpg,209,Kristina,1,2020-11-20_15h50.42.170,test3,2020.2.4,MacIntel,60,,,z,0.974,0,208,208,208,1
,,,,m,1.001,0,209,209,209,1,paints/images/108.jpg,paints/images/259.jpg,210,Kristina,1,2020-11-20_15h50.42.170,test3,2020.2.4,MacIntel,60,,,m,1.001,0,209,209,209,1
,,,,z,1.578,0,210,210,210,1,paints/images/210.jpg,paints/images/30.jpg,211,Kristina,1,2020-11-20_15h50.42.170,test3,2020.2.4,MacIntel,60,,,z,1.578,0,210,210,210,1
