key_resp.keys,key_resp.rt,key_resp_3.keys,key_resp_3.rt,key_resp_2.keys,key_resp_2.rt,trials.thisRepN,trials.thisTrialN,trials.thisN,trials.thisIndex,trials.ran,image_left,image_right,trial_num,participant,session,date,expName,psychopyVersion,OS,frameRate,key_resp_5.keys,key_resp_5.rt,key_resp_4.keys,key_resp_4.rt,trials_2.thisRepN,trials_2.thisTrialN,trials_2.thisN,trials_2.thisIndex,trials_2.ran
space,1.477605,space,18.01089,z,2.783515,0,0,0,0,1,paints/images/344.jpg,paints/images/121.jpg,1,Maggie ,1,2020-11-20_17h39.10.466,test3,2020.2.4,MacIntel,60,,,,,,,,,
,,,,m,1.909755,0,1,1,1,1,paints/images/369.jpg,paints/images/367.jpg,2,Maggie ,1,2020-11-20_17h39.10.466,test3,2020.2.4,MacIntel,60,,,,,,,,,
,,,,m,0.914765,0,2,2,2,1,paints/images/385.jpg,paints/images/253.jpg,3,Maggie ,1,2020-11-20_17h39.10.466,test3,2020.2.4,MacIntel,60,,,,,,,,,
,,,,z,0.94727,0,3,3,3,1,paints/images/230.jpg,paints/images/124.jpg,4,Maggie ,1,2020-11-20_17h39.10.466,test3,2020.2.4,MacIntel,60,,,,,,,,,
,,,,m,1.98068,0,4,4,4,1,paints/images/284.jpg,paints/images/172.jpg,5,Maggie ,1,2020-11-20_17h39.10.466,test3,2020.2.4,MacIntel,60,,,,,,,,,
,,,,m,0.85057,0,5,5,5,1,paints/images/325.jpg,paints/images/5.jpg,6,Maggie ,1,2020-11-20_17h39.10.466,test3,2020.2.4,MacIntel,60,,,,,,,,,
,,,,z,0.69962,0,6,6,6,1,paints/images/2.jpg,paints/images/107.jpg,7,Maggie ,1,2020-11-20_17h39.10.466,test3,2020.2.4,MacIntel,60,,,,,,,,,
,,,,m,0.74629,0,7,7,7,1,paints/images/330.jpg,paints/images/93.jpg,8,Maggie ,1,2020-11-20_17h39.10.466,test3,2020.2.4,MacIntel,60,,,,,,,,,
,,,,z,0.77814,0,8,8,8,1,paints/images/197.jpg,paints/images/20.jpg,9,Maggie ,1,2020-11-20_17h39.10.466,test3,2020.2.4,MacIntel,60,,,,,,,,,
,,,,m,0.63345,0,9,9,9,1,paints/images/233.jpg,paints/images/346.jpg,10,Maggie ,1,2020-11-20_17h39.10.466,test3,2020.2.4,MacIntel,60,,,,,,,,,
,,,,z,0.876865,0,10,10,10,1,paints/images/289.jpg,paints/images/317.jpg,11,Maggie ,1,2020-11-20_17h39.10.466,test3,2020.2.4,MacIntel,60,,,,,,,,,
,,,,m,0.713025,0,11,11,11,1,paints/images/189.jpg,paints/images/230.jpg,12,Maggie ,1,2020-11-20_17h39.10.466,test3,2020.2.4,MacIntel,60,,,,,,,,,
,,,,m,0.757455,0,12,12,12,1,paints/images/28.jpg,paints/images/401.jpg,13,Maggie ,1,2020-11-20_17h39.10.466,test3,2020.2.4,MacIntel,60,,,,,,,,,
,,,,z,0.862005,0,13,13,13,1,paints/images/183.jpg,paints/images/198.jpg,14,Maggie ,1,2020-11-20_17h39.10.466,test3,2020.2.4,MacIntel,60,,,,,,,,,
,,,,m,0.744945,0,14,14,14,1,paints/images/223.jpg,paints/images/249.jpg,15,Maggie ,1,2020-11-20_17h39.10.466,test3,2020.2.4,MacIntel,60,,,,,,,,,
,,,,m,0.646015,0,15,15,15,1,paints/images/331.jpg,paints/images/168.jpg,16,Maggie ,1,2020-11-20_17h39.10.466,test3,2020.2.4,MacIntel,60,,,,,,,,,
,,,,z,0.76068,0,16,16,16,1,paints/images/129.jpg,paints/images/21.jpg,17,Maggie ,1,2020-11-20_17h39.10.466,test3,2020.2.4,MacIntel,60,,,,,,,,,
,,,,z,0.66257,0,17,17,17,1,paints/images/250.jpg,paints/images/290.jpg,18,Maggie ,1,2020-11-20_17h39.10.466,test3,2020.2.4,MacIntel,60,,,,,,,,,
,,,,m,0.628585,0,18,18,18,1,paints/images/342.jpg,paints/images/371.jpg,19,Maggie ,1,2020-11-20_17h39.10.466,test3,2020.2.4,MacIntel,60,,,,,,,,,
,,,,m,0.550215,0,19,19,19,1,paints/images/312.jpg,paints/images/349.jpg,20,Maggie ,1,2020-11-20_17h39.10.466,test3,2020.2.4,MacIntel,60,,,,,,,,,
,,,,z,0.58032,0,20,20,20,1,paints/images/44.jpg,paints/images/23.jpg,21,Maggie ,1,2020-11-20_17h39.10.466,test3,2020.2.4,MacIntel,60,,,,,,,,,
,,,,m,0.568485,0,21,21,21,1,paints/images/209.jpg,paints/images/236.jpg,22,Maggie ,1,2020-11-20_17h39.10.466,test3,2020.2.4,MacIntel,60,,,,,,,,,
,,,,m,0.524895,0,22,22,22,1,paints/images/314.jpg,paints/images/326.jpg,23,Maggie ,1,2020-11-20_17h39.10.466,test3,2020.2.4,MacIntel,60,,,,,,,,,
,,,,z,0.52646,0,23,23,23,1,paints/images/374.jpg,paints/images/397.jpg,24,Maggie ,1,2020-11-20_17h39.10.466,test3,2020.2.4,MacIntel,60,,,,,,,,,
,,,,m,0.563725,0,24,24,24,1,paints/images/355.jpg,paints/images/400.jpg,25,Maggie ,1,2020-11-20_17h39.10.466,test3,2020.2.4,MacIntel,60,,,,,,,,,
,,,,z,0.57973,0,25,25,25,1,paints/images/346.jpg,paints/images/223.jpg,26,Maggie ,1,2020-11-20_17h39.10.466,test3,2020.2.4,MacIntel,60,,,,,,,,,
,,,,m,1.088945,0,26,26,26,1,paints/images/292.jpg,paints/images/122.jpg,27,Maggie ,1,2020-11-20_17h39.10.466,test3,2020.2.4,MacIntel,60,,,,,,,,,
,,,,z,0.491245,0,27,27,27,1,paints/images/81.jpg,paints/images/294.jpg,28,Maggie ,1,2020-11-20_17h39.10.466,test3,2020.2.4,MacIntel,60,,,,,,,,,
,,,,m,0.56712,0,28,28,28,1,paints/images/359.jpg,paints/images/370.jpg,29,Maggie ,1,2020-11-20_17h39.10.466,test3,2020.2.4,MacIntel,60,,,,,,,,,
,,,,z,0.327215,0,29,29,29,1,paints/images/88.jpg,paints/images/119.jpg,30,Maggie ,1,2020-11-20_17h39.10.466,test3,2020.2.4,MacIntel,60,,,,,,,,,
,,,,z,0.72965,0,30,30,30,1,paints/images/178.jpg,paints/images/47.jpg,31,Maggie ,1,2020-11-20_17h39.10.466,test3,2020.2.4,MacIntel,60,,,,,,,,,
,,,,z,0.4129,0,31,31,31,1,paints/images/139.jpg,paints/images/377.jpg,32,Maggie ,1,2020-11-20_17h39.10.466,test3,2020.2.4,MacIntel,60,,,,,,,,,
,,,,m,0.410635,0,32,32,32,1,paints/images/142.jpg,paints/images/379.jpg,33,Maggie ,1,2020-11-20_17h39.10.466,test3,2020.2.4,MacIntel,60,,,,,,,,,
,,,,z,0.40992,0,33,33,33,1,paints/images/366.jpg,paints/images/22.jpg,34,Maggie ,1,2020-11-20_17h39.10.466,test3,2020.2.4,MacIntel,60,,,,,,,,,
,,,,z,0.519295,0,34,34,34,1,paints/images/277.jpg,paints/images/365.jpg,35,Maggie ,1,2020-11-20_17h39.10.466,test3,2020.2.4,MacIntel,60,,,,,,,,,
,,,,z,0.379075,0,35,35,35,1,paints/images/406.jpg,paints/images/388.jpg,36,Maggie ,1,2020-11-20_17h39.10.466,test3,2020.2.4,MacIntel,60,,,,,,,,,
,,,,m,0.47886,0,36,36,36,1,paints/images/389.jpg,paints/images/104.jpg,37,Maggie ,1,2020-11-20_17h39.10.466,test3,2020.2.4,MacIntel,60,,,,,,,,,
,,,,z,0.36045,0,37,37,37,1,paints/images/20.jpg,paints/images/84.jpg,38,Maggie ,1,2020-11-20_17h39.10.466,test3,2020.2.4,MacIntel,60,,,,,,,,,
,,,,z,0.40164,0,38,38,38,1,paints/images/169.jpg,paints/images/163.jpg,39,Maggie ,1,2020-11-20_17h39.10.466,test3,2020.2.4,MacIntel,60,,,,,,,,,
,,,,z,0.394065,0,39,39,39,1,paints/images/58.jpg,paints/images/359.jpg,40,Maggie ,1,2020-11-20_17h39.10.466,test3,2020.2.4,MacIntel,60,,,,,,,,,
,,,,z,0.34537,0,40,40,40,1,paints/images/376.jpg,paints/images/256.jpg,41,Maggie ,1,2020-11-20_17h39.10.466,test3,2020.2.4,MacIntel,60,,,,,,,,,
,,,,m,0.32838,0,41,41,41,1,paints/images/33.jpg,paints/images/261.jpg,42,Maggie ,1,2020-11-20_17h39.10.466,test3,2020.2.4,MacIntel,60,,,,,,,,,
,,,,z,0.339805,0,42,42,42,1,paints/images/294.jpg,paints/images/96.jpg,43,Maggie ,1,2020-11-20_17h39.10.466,test3,2020.2.4,MacIntel,60,,,,,,,,,
,,,,z,0.36062,0,43,43,43,1,paints/images/269.jpg,paints/images/293.jpg,44,Maggie ,1,2020-11-20_17h39.10.466,test3,2020.2.4,MacIntel,60,,,,,,,,,
,,,,z,0.580015,0,44,44,44,1,paints/images/199.jpg,paints/images/284.jpg,45,Maggie ,1,2020-11-20_17h39.10.466,test3,2020.2.4,MacIntel,60,,,,,,,,,
,,,,z,0.436725,0,45,45,45,1,paints/images/255.jpg,paints/images/281.jpg,46,Maggie ,1,2020-11-20_17h39.10.466,test3,2020.2.4,MacIntel,60,,,,,,,,,
,,,,z,0.38614,0,46,46,46,1,paints/images/382.jpg,paints/images/4.jpg,47,Maggie ,1,2020-11-20_17h39.10.466,test3,2020.2.4,MacIntel,60,,,,,,,,,
,,,,m,0.394805,0,47,47,47,1,paints/images/111.jpg,paints/images/83.jpg,48,Maggie ,1,2020-11-20_17h39.10.466,test3,2020.2.4,MacIntel,60,,,,,,,,,
,,,,z,0.308965,0,48,48,48,1,paints/images/239.jpg,paints/images/151.jpg,49,Maggie ,1,2020-11-20_17h39.10.466,test3,2020.2.4,MacIntel,60,,,,,,,,,
,,,,z,0.340145,0,49,49,49,1,paints/images/84.jpg,paints/images/341.jpg,50,Maggie ,1,2020-11-20_17h39.10.466,test3,2020.2.4,MacIntel,60,,,,,,,,,
,,,,z,0.344365,0,50,50,50,1,paints/images/317.jpg,paints/images/159.jpg,51,Maggie ,1,2020-11-20_17h39.10.466,test3,2020.2.4,MacIntel,60,,,,,,,,,
,,,,z,0.39628,0,51,51,51,1,paints/images/153.jpg,paints/images/212.jpg,52,Maggie ,1,2020-11-20_17h39.10.466,test3,2020.2.4,MacIntel,60,,,,,,,,,
,,,,m,0.355685,0,52,52,52,1,paints/images/5.jpg,paints/images/361.jpg,53,Maggie ,1,2020-11-20_17h39.10.466,test3,2020.2.4,MacIntel,60,,,,,,,,,
,,,,z,0.310965,0,53,53,53,1,paints/images/319.jpg,paints/images/178.jpg,54,Maggie ,1,2020-11-20_17h39.10.466,test3,2020.2.4,MacIntel,60,,,,,,,,,
,,,,z,0.629365,0,54,54,54,1,paints/images/118.jpg,paints/images/275.jpg,55,Maggie ,1,2020-11-20_17h39.10.466,test3,2020.2.4,MacIntel,60,,,,,,,,,
,,,,z,0.344825,0,55,55,55,1,paints/images/213.jpg,paints/images/312.jpg,56,Maggie ,1,2020-11-20_17h39.10.466,test3,2020.2.4,MacIntel,60,,,,,,,,,
,,,,z,0.32802,0,56,56,56,1,paints/images/4.jpg,paints/images/131.jpg,57,Maggie ,1,2020-11-20_17h39.10.466,test3,2020.2.4,MacIntel,60,,,,,,,,,
,,,,m,0.29668,0,57,57,57,1,paints/images/206.jpg,paints/images/391.jpg,58,Maggie ,1,2020-11-20_17h39.10.466,test3,2020.2.4,MacIntel,60,,,,,,,,,
,,,,z,0.34267,0,58,58,58,1,paints/images/349.jpg,paints/images/240.jpg,59,Maggie ,1,2020-11-20_17h39.10.466,test3,2020.2.4,MacIntel,60,,,,,,,,,
,,,,z,0.326605,0,59,59,59,1,paints/images/174.jpg,paints/images/197.jpg,60,Maggie ,1,2020-11-20_17h39.10.466,test3,2020.2.4,MacIntel,60,,,,,,,,,
,,,,z,0.346885,0,60,60,60,1,paints/images/93.jpg,paints/images/330.jpg,61,Maggie ,1,2020-11-20_17h39.10.466,test3,2020.2.4,MacIntel,60,,,,,,,,,
,,,,z,0.431005,0,61,61,61,1,paints/images/262.jpg,paints/images/225.jpg,62,Maggie ,1,2020-11-20_17h39.10.466,test3,2020.2.4,MacIntel,60,,,,,,,,,
,,,,m,0.35319,0,62,62,62,1,paints/images/322.jpg,paints/images/267.jpg,63,Maggie ,1,2020-11-20_17h39.10.466,test3,2020.2.4,MacIntel,60,,,,,,,,,
,,,,z,0.26253,0,63,63,63,1,paints/images/104.jpg,paints/images/140.jpg,64,Maggie ,1,2020-11-20_17h39.10.466,test3,2020.2.4,MacIntel,60,,,,,,,,,
,,,,z,0.376455,0,64,64,64,1,paints/images/400.jpg,paints/images/355.jpg,65,Maggie ,1,2020-11-20_17h39.10.466,test3,2020.2.4,MacIntel,60,,,,,,,,,
,,,,z,0.531165,0,65,65,65,1,paints/images/89.jpg,paints/images/380.jpg,66,Maggie ,1,2020-11-20_17h39.10.466,test3,2020.2.4,MacIntel,60,,,,,,,,,
,,,,z,0.34474,0,66,66,66,1,paints/images/181.jpg,paints/images/195.jpg,67,Maggie ,1,2020-11-20_17h39.10.466,test3,2020.2.4,MacIntel,60,,,,,,,,,
,,,,m,0.36109,0,67,67,67,1,paints/images/130.jpg,paints/images/155.jpg,68,Maggie ,1,2020-11-20_17h39.10.466,test3,2020.2.4,MacIntel,60,,,,,,,,,
,,,,z,0.261385,0,68,68,68,1,paints/images/15.jpg,paints/images/55.jpg,69,Maggie ,1,2020-11-20_17h39.10.466,test3,2020.2.4,MacIntel,60,,,,,,,,,
,,,,z,0.34434,0,69,69,69,1,paints/images/393.jpg,paints/images/34.jpg,70,Maggie ,1,2020-11-20_17h39.10.466,test3,2020.2.4,MacIntel,60,,,,,,,,,
,,,,z,0.31216,0,70,70,70,1,paints/images/192.jpg,paints/images/351.jpg,71,Maggie ,1,2020-11-20_17h39.10.466,test3,2020.2.4,MacIntel,60,,,,,,,,,
,,,,z,0.29774,0,71,71,71,1,paints/images/57.jpg,paints/images/363.jpg,72,Maggie ,1,2020-11-20_17h39.10.466,test3,2020.2.4,MacIntel,60,,,,,,,,,
,,,,z,0.34439,0,72,72,72,1,paints/images/243.jpg,paints/images/295.jpg,73,Maggie ,1,2020-11-20_17h39.10.466,test3,2020.2.4,MacIntel,60,,,,,,,,,
,,,,m,0.63989,0,73,73,73,1,paints/images/196.jpg,paints/images/146.jpg,74,Maggie ,1,2020-11-20_17h39.10.466,test3,2020.2.4,MacIntel,60,,,,,,,,,
,,,,m,0.511965,0,74,74,74,1,paints/images/367.jpg,paints/images/332.jpg,75,Maggie ,1,2020-11-20_17h39.10.466,test3,2020.2.4,MacIntel,60,,,,,,,,,
,,,,z,0.39161,0,75,75,75,1,paints/images/249.jpg,paints/images/50.jpg,76,Maggie ,1,2020-11-20_17h39.10.466,test3,2020.2.4,MacIntel,60,,,,,,,,,
,,,,m,0.429545,0,76,76,76,1,paints/images/100.jpg,paints/images/91.jpg,77,Maggie ,1,2020-11-20_17h39.10.466,test3,2020.2.4,MacIntel,60,,,,,,,,,
,,,,m,0.443275,0,77,77,77,1,paints/images/301.jpg,paints/images/154.jpg,78,Maggie ,1,2020-11-20_17h39.10.466,test3,2020.2.4,MacIntel,60,,,,,,,,,
,,,,m,0.316545,0,78,78,78,1,paints/images/13.jpg,paints/images/308.jpg,79,Maggie ,1,2020-11-20_17h39.10.466,test3,2020.2.4,MacIntel,60,,,,,,,,,
,,,,m,0.3285,0,79,79,79,1,paints/images/11.jpg,paints/images/24.jpg,80,Maggie ,1,2020-11-20_17h39.10.466,test3,2020.2.4,MacIntel,60,,,,,,,,,
,,,,m,0.37639,0,80,80,80,1,paints/images/27.jpg,paints/images/114.jpg,81,Maggie ,1,2020-11-20_17h39.10.466,test3,2020.2.4,MacIntel,60,,,,,,,,,
,,,,m,0.328345,0,81,81,81,1,paints/images/334.jpg,paints/images/217.jpg,82,Maggie ,1,2020-11-20_17h39.10.466,test3,2020.2.4,MacIntel,60,,,,,,,,,
,,,,m,0.31219,0,82,82,82,1,paints/images/340.jpg,paints/images/320.jpg,83,Maggie ,1,2020-11-20_17h39.10.466,test3,2020.2.4,MacIntel,60,,,,,,,,,
,,,,m,0.74547,0,83,83,83,1,paints/images/204.jpg,paints/images/52.jpg,84,Maggie ,1,2020-11-20_17h39.10.466,test3,2020.2.4,MacIntel,60,,,,,,,,,
,,,,m,0.71272,0,84,84,84,1,paints/images/266.jpg,paints/images/179.jpg,85,Maggie ,1,2020-11-20_17h39.10.466,test3,2020.2.4,MacIntel,60,,,,,,,,,
,,,,z,0.71574,0,85,85,85,1,paints/images/309.jpg,paints/images/45.jpg,86,Maggie ,1,2020-11-20_17h39.10.466,test3,2020.2.4,MacIntel,60,,,,,,,,,
,,,,m,0.479925,0,86,86,86,1,paints/images/48.jpg,paints/images/352.jpg,87,Maggie ,1,2020-11-20_17h39.10.466,test3,2020.2.4,MacIntel,60,,,,,,,,,
,,,,z,0.69572,0,87,87,87,1,paints/images/238.jpg,paints/images/190.jpg,88,Maggie ,1,2020-11-20_17h39.10.466,test3,2020.2.4,MacIntel,60,,,,,,,,,
,,,,m,0.662735,0,88,88,88,1,paints/images/216.jpg,paints/images/207.jpg,89,Maggie ,1,2020-11-20_17h39.10.466,test3,2020.2.4,MacIntel,60,,,,,,,,,
,,,,z,0.64729,0,89,89,89,1,paints/images/228.jpg,paints/images/315.jpg,90,Maggie ,1,2020-11-20_17h39.10.466,test3,2020.2.4,MacIntel,60,,,,,,,,,
,,,,z,0.30024,0,90,90,90,1,paints/images/368.jpg,paints/images/221.jpg,91,Maggie ,1,2020-11-20_17h39.10.466,test3,2020.2.4,MacIntel,60,,,,,,,,,
,,,,z,0.23657,0,91,91,91,1,paints/images/402.jpg,paints/images/257.jpg,92,Maggie ,1,2020-11-20_17h39.10.466,test3,2020.2.4,MacIntel,60,,,,,,,,,
,,,,z,0.18443,0,92,92,92,1,paints/images/248.jpg,paints/images/296.jpg,93,Maggie ,1,2020-11-20_17h39.10.466,test3,2020.2.4,MacIntel,60,,,,,,,,,
,,,,z,0.116045,0,93,93,93,1,paints/images/234.jpg,paints/images/174.jpg,94,Maggie ,1,2020-11-20_17h39.10.466,test3,2020.2.4,MacIntel,60,,,,,,,,,
,,,,z,0.11147,0,94,94,94,1,paints/images/149.jpg,paints/images/204.jpg,95,Maggie ,1,2020-11-20_17h39.10.466,test3,2020.2.4,MacIntel,60,,,,,,,,,
,,,,z,0.112515,0,95,95,95,1,paints/images/56.jpg,paints/images/117.jpg,96,Maggie ,1,2020-11-20_17h39.10.466,test3,2020.2.4,MacIntel,60,,,,,,,,,
,,,,z,0.12957,0,96,96,96,1,paints/images/146.jpg,paints/images/287.jpg,97,Maggie ,1,2020-11-20_17h39.10.466,test3,2020.2.4,MacIntel,60,,,,,,,,,
,,,,m,0.38401,0,97,97,97,1,paints/images/221.jpg,paints/images/62.jpg,98,Maggie ,1,2020-11-20_17h39.10.466,test3,2020.2.4,MacIntel,60,,,,,,,,,
,,,,z,0.541895,0,98,98,98,1,paints/images/110.jpg,paints/images/321.jpg,99,Maggie ,1,2020-11-20_17h39.10.466,test3,2020.2.4,MacIntel,60,,,,,,,,,
,,,,z,0.16241,0,99,99,99,1,paints/images/67.jpg,paints/images/384.jpg,100,Maggie ,1,2020-11-20_17h39.10.466,test3,2020.2.4,MacIntel,60,,,,,,,,,
,,,,z,0.126965,0,100,100,100,1,paints/images/356.jpg,paints/images/137.jpg,101,Maggie ,1,2020-11-20_17h39.10.466,test3,2020.2.4,MacIntel,60,,,,,,,,,
,,,,z,0.125675,0,101,101,101,1,paints/images/274.jpg,paints/images/232.jpg,102,Maggie ,1,2020-11-20_17h39.10.466,test3,2020.2.4,MacIntel,60,,,,,,,,,
,,,,z,0.094365,0,102,102,102,1,paints/images/70.jpg,paints/images/183.jpg,103,Maggie ,1,2020-11-20_17h39.10.466,test3,2020.2.4,MacIntel,60,,,,,,,,,
,,,,z,1.01435,0,103,103,103,1,paints/images/10.jpg,paints/images/393.jpg,104,Maggie ,1,2020-11-20_17h39.10.466,test3,2020.2.4,MacIntel,60,,,,,,,,,
,,,,z,0.679625,0,104,104,104,1,paints/images/378.jpg,paints/images/181.jpg,105,Maggie ,1,2020-11-20_17h39.10.466,test3,2020.2.4,MacIntel,60,,,,,,,,,
,,,,m,0.561545,0,105,105,105,1,paints/images/303.jpg,paints/images/334.jpg,106,Maggie ,1,2020-11-20_17h39.10.466,test3,2020.2.4,MacIntel,60,,,,,,,,,
,,,,m,0.776315,0,106,106,106,1,paints/images/328.jpg,paints/images/344.jpg,107,Maggie ,1,2020-11-20_17h39.10.466,test3,2020.2.4,MacIntel,60,,,,,,,,,
,,,,m,0.701445,0,107,107,107,1,paints/images/397.jpg,paints/images/318.jpg,108,Maggie ,1,2020-11-20_17h39.10.466,test3,2020.2.4,MacIntel,60,,,,,,,,,
,,,,m,0.545205,0,108,108,108,1,paints/images/365.jpg,paints/images/211.jpg,109,Maggie ,1,2020-11-20_17h39.10.466,test3,2020.2.4,MacIntel,60,,,,,,,,,
,,,,z,1.068705,0,109,109,109,1,paints/images/23.jpg,paints/images/46.jpg,110,Maggie ,1,2020-11-20_17h39.10.466,test3,2020.2.4,MacIntel,60,,,,,,,,,
,,,,m,0.3475,0,110,110,110,1,paints/images/304.jpg,paints/images/11.jpg,111,Maggie ,1,2020-11-20_17h39.10.466,test3,2020.2.4,MacIntel,60,,,,,,,,,
,,,,z,0.5112,0,111,111,111,1,paints/images/226.jpg,paints/images/6.jpg,112,Maggie ,1,2020-11-20_17h39.10.466,test3,2020.2.4,MacIntel,60,,,,,,,,,
,,,,m,0.342845,0,112,112,112,1,paints/images/170.jpg,paints/images/262.jpg,113,Maggie ,1,2020-11-20_17h39.10.466,test3,2020.2.4,MacIntel,60,,,,,,,,,
,,,,z,0.299815,0,113,113,113,1,paints/images/259.jpg,paints/images/343.jpg,114,Maggie ,1,2020-11-20_17h39.10.466,test3,2020.2.4,MacIntel,60,,,,,,,,,
,,,,z,0.628065,0,114,114,114,1,paints/images/19.jpg,paints/images/394.jpg,115,Maggie ,1,2020-11-20_17h39.10.466,test3,2020.2.4,MacIntel,60,,,,,,,,,
,,,,z,0.38847,0,115,115,115,1,paints/images/215.jpg,paints/images/19.jpg,116,Maggie ,1,2020-11-20_17h39.10.466,test3,2020.2.4,MacIntel,60,,,,,,,,,
,,,,z,0.38018,0,116,116,116,1,paints/images/52.jpg,paints/images/360.jpg,117,Maggie ,1,2020-11-20_17h39.10.466,test3,2020.2.4,MacIntel,60,,,,,,,,,
,,,,z,0.32742,0,117,117,117,1,paints/images/99.jpg,paints/images/328.jpg,118,Maggie ,1,2020-11-20_17h39.10.466,test3,2020.2.4,MacIntel,60,,,,,,,,,
,,,,z,0.43007,0,118,118,118,1,paints/images/150.jpg,paints/images/164.jpg,119,Maggie ,1,2020-11-20_17h39.10.466,test3,2020.2.4,MacIntel,60,,,,,,,,,
,,,,z,0.3519,0,119,119,119,1,paints/images/172.jpg,paints/images/213.jpg,120,Maggie ,1,2020-11-20_17h39.10.466,test3,2020.2.4,MacIntel,60,,,,,,,,,
,,,,z,0.428905,0,120,120,120,1,paints/images/50.jpg,paints/images/101.jpg,121,Maggie ,1,2020-11-20_17h39.10.466,test3,2020.2.4,MacIntel,60,,,,,,,,,
,,,,z,0.42251,0,121,121,121,1,paints/images/358.jpg,paints/images/354.jpg,122,Maggie ,1,2020-11-20_17h39.10.466,test3,2020.2.4,MacIntel,60,,,,,,,,,
,,,,z,0.379495,0,122,122,122,1,paints/images/257.jpg,paints/images/265.jpg,123,Maggie ,1,2020-11-20_17h39.10.466,test3,2020.2.4,MacIntel,60,,,,,,,,,
,,,,z,0.373455,0,123,123,123,1,paints/images/91.jpg,paints/images/342.jpg,124,Maggie ,1,2020-11-20_17h39.10.466,test3,2020.2.4,MacIntel,60,,,,,,,,,
,,,,z,0.395765,0,124,124,124,1,paints/images/168.jpg,paints/images/132.jpg,125,Maggie ,1,2020-11-20_17h39.10.466,test3,2020.2.4,MacIntel,60,,,,,,,,,
,,,,z,0.36142,0,125,125,125,1,paints/images/280.jpg,paints/images/98.jpg,126,Maggie ,1,2020-11-20_17h39.10.466,test3,2020.2.4,MacIntel,60,,,,,,,,,
,,,,z,0.3289,0,126,126,126,1,paints/images/261.jpg,paints/images/40.jpg,127,Maggie ,1,2020-11-20_17h39.10.466,test3,2020.2.4,MacIntel,60,,,,,,,,,
,,,,z,0.759535,0,127,127,127,1,paints/images/333.jpg,paints/images/66.jpg,128,Maggie ,1,2020-11-20_17h39.10.466,test3,2020.2.4,MacIntel,60,,,,,,,,,
,,,,z,0.416225,0,128,128,128,1,paints/images/96.jpg,paints/images/82.jpg,129,Maggie ,1,2020-11-20_17h39.10.466,test3,2020.2.4,MacIntel,60,,,,,,,,,
,,,,z,0.381335,0,129,129,129,1,paints/images/32.jpg,paints/images/325.jpg,130,Maggie ,1,2020-11-20_17h39.10.466,test3,2020.2.4,MacIntel,60,,,,,,,,,
,,,,z,0.31215,0,130,130,130,1,paints/images/268.jpg,paints/images/167.jpg,131,Maggie ,1,2020-11-20_17h39.10.466,test3,2020.2.4,MacIntel,60,,,,,,,,,
,,,,z,0.324355,0,131,131,131,1,paints/images/162.jpg,paints/images/25.jpg,132,Maggie ,1,2020-11-20_17h39.10.466,test3,2020.2.4,MacIntel,60,,,,,,,,,
,,,,z,0.344885,0,132,132,132,1,paints/images/53.jpg,paints/images/305.jpg,133,Maggie ,1,2020-11-20_17h39.10.466,test3,2020.2.4,MacIntel,60,,,,,,,,,
,,,,z,0.329955,0,133,133,133,1,paints/images/263.jpg,paints/images/209.jpg,134,Maggie ,1,2020-11-20_17h39.10.466,test3,2020.2.4,MacIntel,60,,,,,,,,,
,,,,z,0.31259,0,134,134,134,1,paints/images/92.jpg,paints/images/364.jpg,135,Maggie ,1,2020-11-20_17h39.10.466,test3,2020.2.4,MacIntel,60,,,,,,,,,
,,,,z,0.495855,0,135,135,135,1,paints/images/61.jpg,paints/images/291.jpg,136,Maggie ,1,2020-11-20_17h39.10.466,test3,2020.2.4,MacIntel,60,,,,,,,,,
,,,,z,0.34844,0,136,136,136,1,paints/images/293.jpg,paints/images/283.jpg,137,Maggie ,1,2020-11-20_17h39.10.466,test3,2020.2.4,MacIntel,60,,,,,,,,,
,,,,z,0.315315,0,137,137,137,1,paints/images/229.jpg,paints/images/173.jpg,138,Maggie ,1,2020-11-20_17h39.10.466,test3,2020.2.4,MacIntel,60,,,,,,,,,
,,,,z,0.305455,0,138,138,138,1,paints/images/41.jpg,paints/images/133.jpg,139,Maggie ,1,2020-11-20_17h39.10.466,test3,2020.2.4,MacIntel,60,,,,,,,,,
,,,,z,0.33748,0,139,139,139,1,paints/images/182.jpg,paints/images/348.jpg,140,Maggie ,1,2020-11-20_17h39.10.466,test3,2020.2.4,MacIntel,60,,,,,,,,,
,,,,z,0.44467,0,140,140,140,1,paints/images/379.jpg,paints/images/228.jpg,141,Maggie ,1,2020-11-20_17h39.10.466,test3,2020.2.4,MacIntel,60,,,,,,,,,
,,,,z,0.296635,0,141,141,141,1,paints/images/188.jpg,paints/images/13.jpg,142,Maggie ,1,2020-11-20_17h39.10.466,test3,2020.2.4,MacIntel,60,,,,,,,,,
,,,,z,0.378715,0,142,142,142,1,paints/images/40.jpg,paints/images/329.jpg,143,Maggie ,1,2020-11-20_17h39.10.466,test3,2020.2.4,MacIntel,60,,,,,,,,,
,,,,z,0.379305,0,143,143,143,1,paints/images/323.jpg,paints/images/165.jpg,144,Maggie ,1,2020-11-20_17h39.10.466,test3,2020.2.4,MacIntel,60,,,,,,,,,
,,,,z,0.379145,0,144,144,144,1,paints/images/78.jpg,paints/images/407.jpg,145,Maggie ,1,2020-11-20_17h39.10.466,test3,2020.2.4,MacIntel,60,,,,,,,,,
,,,,z,0.411995,0,145,145,145,1,paints/images/242.jpg,paints/images/75.jpg,146,Maggie ,1,2020-11-20_17h39.10.466,test3,2020.2.4,MacIntel,60,,,,,,,,,
,,,,z,0.41272,0,146,146,146,1,paints/images/62.jpg,paints/images/187.jpg,147,Maggie ,1,2020-11-20_17h39.10.466,test3,2020.2.4,MacIntel,60,,,,,,,,,
,,,,z,0.39508,0,147,147,147,1,paints/images/131.jpg,paints/images/285.jpg,148,Maggie ,1,2020-11-20_17h39.10.466,test3,2020.2.4,MacIntel,60,,,,,,,,,
,,,,z,0.361925,0,148,148,148,1,paints/images/241.jpg,paints/images/97.jpg,149,Maggie ,1,2020-11-20_17h39.10.466,test3,2020.2.4,MacIntel,60,,,,,,,,,
,,,,m,0.3917,0,149,149,149,1,paints/images/132.jpg,paints/images/289.jpg,150,Maggie ,1,2020-11-20_17h39.10.466,test3,2020.2.4,MacIntel,60,,,,,,,,,
,,,,m,0.559355,0,150,150,150,1,paints/images/185.jpg,paints/images/54.jpg,151,Maggie ,1,2020-11-20_17h39.10.466,test3,2020.2.4,MacIntel,60,,,,,,,,,
,,,,m,0.501135,0,151,151,151,1,paints/images/272.jpg,paints/images/51.jpg,152,Maggie ,1,2020-11-20_17h39.10.466,test3,2020.2.4,MacIntel,60,,,,,,,,,
,,,,m,0.461105,0,152,152,152,1,paints/images/403.jpg,paints/images/71.jpg,153,Maggie ,1,2020-11-20_17h39.10.466,test3,2020.2.4,MacIntel,60,,,,,,,,,
,,,,m,0.426845,0,153,153,153,1,paints/images/202.jpg,paints/images/219.jpg,154,Maggie ,1,2020-11-20_17h39.10.466,test3,2020.2.4,MacIntel,60,,,,,,,,,
,,,,m,0.41653,0,154,154,154,1,paints/images/34.jpg,paints/images/271.jpg,155,Maggie ,1,2020-11-20_17h39.10.466,test3,2020.2.4,MacIntel,60,,,,,,,,,
,,,,m,0.34543,0,155,155,155,1,paints/images/296.jpg,paints/images/90.jpg,156,Maggie ,1,2020-11-20_17h39.10.466,test3,2020.2.4,MacIntel,60,,,,,,,,,
,,,,m,0.406785,0,156,156,156,1,paints/images/25.jpg,paints/images/338.jpg,157,Maggie ,1,2020-11-20_17h39.10.466,test3,2020.2.4,MacIntel,60,,,,,,,,,
,,,,m,0.361305,0,157,157,157,1,paints/images/396.jpg,paints/images/78.jpg,158,Maggie ,1,2020-11-20_17h39.10.466,test3,2020.2.4,MacIntel,60,,,,,,,,,
,,,,m,0.31182,0,158,158,158,1,paints/images/72.jpg,paints/images/111.jpg,159,Maggie ,1,2020-11-20_17h39.10.466,test3,2020.2.4,MacIntel,60,,,,,,,,,
,,,,m,0.342185,0,159,159,159,1,paints/images/164.jpg,paints/images/16.jpg,160,Maggie ,1,2020-11-20_17h39.10.466,test3,2020.2.4,MacIntel,60,,,,,,,,,
,,,,m,0.37616,0,160,160,160,1,paints/images/387.jpg,paints/images/244.jpg,161,Maggie ,1,2020-11-20_17h39.10.466,test3,2020.2.4,MacIntel,60,,,,,,,,,
,,,,m,0.330535,0,161,161,161,1,paints/images/64.jpg,paints/images/260.jpg,162,Maggie ,1,2020-11-20_17h39.10.466,test3,2020.2.4,MacIntel,60,,,,,,,,,
,,,,m,0.39985,0,162,162,162,1,paints/images/160.jpg,paints/images/63.jpg,163,Maggie ,1,2020-11-20_17h39.10.466,test3,2020.2.4,MacIntel,60,,,,,,,,,
,,,,m,0.36163,0,163,163,163,1,paints/images/3.jpg,paints/images/282.jpg,164,Maggie ,1,2020-11-20_17h39.10.466,test3,2020.2.4,MacIntel,60,,,,,,,,,
,,,,m,0.366665,0,164,164,164,1,paints/images/307.jpg,paints/images/152.jpg,165,Maggie ,1,2020-11-20_17h39.10.466,test3,2020.2.4,MacIntel,60,,,,,,,,,
,,,,m,0.34958,0,165,165,165,1,paints/images/311.jpg,paints/images/123.jpg,166,Maggie ,1,2020-11-20_17h39.10.466,test3,2020.2.4,MacIntel,60,,,,,,,,,
,,,,m,0.34483,0,166,166,166,1,paints/images/143.jpg,paints/images/286.jpg,167,Maggie ,1,2020-11-20_17h39.10.466,test3,2020.2.4,MacIntel,60,,,,,,,,,
,,,,m,0.394745,0,167,167,167,1,paints/images/97.jpg,paints/images/216.jpg,168,Maggie ,1,2020-11-20_17h39.10.466,test3,2020.2.4,MacIntel,60,,,,,,,,,
,,,,m,0.31367,0,168,168,168,1,paints/images/395.jpg,paints/images/170.jpg,169,Maggie ,1,2020-11-20_17h39.10.466,test3,2020.2.4,MacIntel,60,,,,,,,,,
,,,,m,0.578605,0,169,169,169,1,paints/images/151.jpg,paints/images/26.jpg,170,Maggie ,1,2020-11-20_17h39.10.466,test3,2020.2.4,MacIntel,60,,,,,,,,,
,,,,m,0.417045,0,170,170,170,1,paints/images/51.jpg,paints/images/32.jpg,171,Maggie ,1,2020-11-20_17h39.10.466,test3,2020.2.4,MacIntel,60,,,,,,,,,
,,,,m,0.34167,0,171,171,171,1,paints/images/305.jpg,paints/images/176.jpg,172,Maggie ,1,2020-11-20_17h39.10.466,test3,2020.2.4,MacIntel,60,,,,,,,,,
,,,,m,0.28254,0,172,172,172,1,paints/images/137.jpg,paints/images/48.jpg,173,Maggie ,1,2020-11-20_17h39.10.466,test3,2020.2.4,MacIntel,60,,,,,,,,,
,,,,m,0.473665,0,173,173,173,1,paints/images/65.jpg,paints/images/243.jpg,174,Maggie ,1,2020-11-20_17h39.10.466,test3,2020.2.4,MacIntel,60,,,,,,,,,
,,,,m,0.46197,0,174,174,174,1,paints/images/115.jpg,paints/images/210.jpg,175,Maggie ,1,2020-11-20_17h39.10.466,test3,2020.2.4,MacIntel,60,,,,,,,,,
,,,,m,0.36295,0,175,175,175,1,paints/images/310.jpg,paints/images/58.jpg,176,Maggie ,1,2020-11-20_17h39.10.466,test3,2020.2.4,MacIntel,60,,,,,,,,,
,,,,m,0.36778,0,176,176,176,1,paints/images/1.jpg,paints/images/112.jpg,177,Maggie ,1,2020-11-20_17h39.10.466,test3,2020.2.4,MacIntel,60,,,,,,,,,
,,,,m,0.3005,0,177,177,177,1,paints/images/125.jpg,paints/images/17.jpg,178,Maggie ,1,2020-11-20_17h39.10.466,test3,2020.2.4,MacIntel,60,,,,,,,,,
,,,,m,0.31086,0,178,178,178,1,paints/images/279.jpg,paints/images/166.jpg,179,Maggie ,1,2020-11-20_17h39.10.466,test3,2020.2.4,MacIntel,60,,,,,,,,,
,,,,m,0.3283,0,179,179,179,1,paints/images/316.jpg,paints/images/306.jpg,180,Maggie ,1,2020-11-20_17h39.10.466,test3,2020.2.4,MacIntel,60,,,,,,,,,
,,,,m,0.367665,0,180,180,180,1,paints/images/22.jpg,paints/images/214.jpg,181,Maggie ,1,2020-11-20_17h39.10.466,test3,2020.2.4,MacIntel,60,,,,,,,,,
,,,,m,0.394455,0,181,181,181,1,paints/images/54.jpg,paints/images/235.jpg,182,Maggie ,1,2020-11-20_17h39.10.466,test3,2020.2.4,MacIntel,60,,,,,,,,,
,,,,m,0.440295,0,182,182,182,1,paints/images/225.jpg,paints/images/160.jpg,183,Maggie ,1,2020-11-20_17h39.10.466,test3,2020.2.4,MacIntel,60,,,,,,,,,
,,,,m,0.374535,0,183,183,183,1,paints/images/339.jpg,paints/images/59.jpg,184,Maggie ,1,2020-11-20_17h39.10.466,test3,2020.2.4,MacIntel,60,,,,,,,,,
,,,,m,0.380765,0,184,184,184,1,paints/images/409.jpg,paints/images/180.jpg,185,Maggie ,1,2020-11-20_17h39.10.466,test3,2020.2.4,MacIntel,60,,,,,,,,,
,,,,m,0.381775,0,185,185,185,1,paints/images/145.jpg,paints/images/115.jpg,186,Maggie ,1,2020-11-20_17h39.10.466,test3,2020.2.4,MacIntel,60,,,,,,,,,
,,,,m,0.39067,0,186,186,186,1,paints/images/147.jpg,paints/images/37.jpg,187,Maggie ,1,2020-11-20_17h39.10.466,test3,2020.2.4,MacIntel,60,,,,,,,,,
,,,,m,0.345505,0,187,187,187,1,paints/images/288.jpg,paints/images/64.jpg,188,Maggie ,1,2020-11-20_17h39.10.466,test3,2020.2.4,MacIntel,60,,,,,,,,,
,,,,m,0.363075,0,188,188,188,1,paints/images/235.jpg,paints/images/201.jpg,189,Maggie ,1,2020-11-20_17h39.10.466,test3,2020.2.4,MacIntel,60,,,,,,,,,
,,,,m,0.37994,0,189,189,189,1,paints/images/313.jpg,paints/images/2.jpg,190,Maggie ,1,2020-11-20_17h39.10.466,test3,2020.2.4,MacIntel,60,,,,,,,,,
,,,,m,0.000735,0,190,190,190,1,paints/images/329.jpg,paints/images/38.jpg,191,Maggie ,1,2020-11-20_17h39.10.466,test3,2020.2.4,MacIntel,60,,,,,,,,,
,,,,m,0.34488,0,191,191,191,1,paints/images/9.jpg,paints/images/241.jpg,192,Maggie ,1,2020-11-20_17h39.10.466,test3,2020.2.4,MacIntel,60,,,,,,,,,
,,,,m,0.360405,0,192,192,192,1,paints/images/364.jpg,paints/images/44.jpg,193,Maggie ,1,2020-11-20_17h39.10.466,test3,2020.2.4,MacIntel,60,,,,,,,,,
,,,,m,0.345395,0,193,193,193,1,paints/images/14.jpg,paints/images/109.jpg,194,Maggie ,1,2020-11-20_17h39.10.466,test3,2020.2.4,MacIntel,60,,,,,,,,,
,,,,m,0.3816,0,194,194,194,1,paints/images/0.jpg,paints/images/14.jpg,195,Maggie ,1,2020-11-20_17h39.10.466,test3,2020.2.4,MacIntel,60,,,,,,,,,
,,,,m,0.395685,0,195,195,195,1,paints/images/398.jpg,paints/images/247.jpg,196,Maggie ,1,2020-11-20_17h39.10.466,test3,2020.2.4,MacIntel,60,,,,,,,,,
,,,,m,0.38395,0,196,196,196,1,paints/images/377.jpg,paints/images/237.jpg,197,Maggie ,1,2020-11-20_17h39.10.466,test3,2020.2.4,MacIntel,60,,,,,,,,,
,,,,m,0.360585,0,197,197,197,1,paints/images/246.jpg,paints/images/184.jpg,198,Maggie ,1,2020-11-20_17h39.10.466,test3,2020.2.4,MacIntel,60,,,,,,,,,
,,,,m,0.379735,0,198,198,198,1,paints/images/299.jpg,paints/images/301.jpg,199,Maggie ,1,2020-11-20_17h39.10.466,test3,2020.2.4,MacIntel,60,,,,,,,,,
,,,,m,0.373045,0,199,199,199,1,paints/images/116.jpg,paints/images/148.jpg,200,Maggie ,1,2020-11-20_17h39.10.466,test3,2020.2.4,MacIntel,60,,,,,,,,,
,,,,m,1.378675,0,0,0,0,1,paints/images/267.jpg,paints/images/336.jpg,1,Maggie ,1,2020-11-20_17h39.10.466,test3,2020.2.4,MacIntel,60,space,0.898165,m,1.378675,0,0,0,0,1
,,,,z,0.85694,0,1,1,1,1,paints/images/6.jpg,paints/images/182.jpg,2,Maggie ,1,2020-11-20_17h39.10.466,test3,2020.2.4,MacIntel,60,,,z,0.85694,0,1,1,1,1
,,,,m,0.67665,0,2,2,2,1,paints/images/348.jpg,paints/images/105.jpg,3,Maggie ,1,2020-11-20_17h39.10.466,test3,2020.2.4,MacIntel,60,,,m,0.67665,0,2,2,2,1
,,,,z,1.212605,0,3,3,3,1,paints/images/404.jpg,paints/images/372.jpg,4,Maggie ,1,2020-11-20_17h39.10.466,test3,2020.2.4,MacIntel,60,,,z,1.212605,0,3,3,3,1
,,,,m,0.512775,0,4,4,4,1,paints/images/324.jpg,paints/images/134.jpg,5,Maggie ,1,2020-11-20_17h39.10.466,test3,2020.2.4,MacIntel,60,,,m,0.512775,0,4,4,4,1
,,,,m,0.853555,0,5,5,5,1,paints/images/278.jpg,paints/images/269.jpg,6,Maggie ,1,2020-11-20_17h39.10.466,test3,2020.2.4,MacIntel,60,,,m,0.853555,0,5,5,5,1
,,,,z,0.758,0,6,6,6,1,paints/images/237.jpg,paints/images/375.jpg,7,Maggie ,1,2020-11-20_17h39.10.466,test3,2020.2.4,MacIntel,60,,,z,0.758,0,6,6,6,1
,,,,m,0.511355,0,7,7,7,1,paints/images/109.jpg,paints/images/224.jpg,8,Maggie ,1,2020-11-20_17h39.10.466,test3,2020.2.4,MacIntel,60,,,m,0.511355,0,7,7,7,1
,,,,z,0.345055,0,8,8,8,1,paints/images/318.jpg,paints/images/127.jpg,9,Maggie ,1,2020-11-20_17h39.10.466,test3,2020.2.4,MacIntel,60,,,z,0.345055,0,8,8,8,1
,,,,m,0.31189,0,9,9,9,1,paints/images/120.jpg,paints/images/254.jpg,10,Maggie ,1,2020-11-20_17h39.10.466,test3,2020.2.4,MacIntel,60,,,m,0.31189,0,9,9,9,1
,,,,z,0.212095,0,10,10,10,1,paints/images/86.jpg,paints/images/67.jpg,11,Maggie ,1,2020-11-20_17h39.10.466,test3,2020.2.4,MacIntel,60,,,z,0.212095,0,10,10,10,1
,,,,z,0.647135,0,11,11,11,1,paints/images/302.jpg,paints/images/245.jpg,12,Maggie ,1,2020-11-20_17h39.10.466,test3,2020.2.4,MacIntel,60,,,z,0.647135,0,11,11,11,1
,,,,m,18.208415,0,12,12,12,1,paints/images/94.jpg,paints/images/242.jpg,13,Maggie ,1,2020-11-20_17h39.10.466,test3,2020.2.4,MacIntel,60,,,m,18.208415,0,12,12,12,1
,,,,m,0.817565,0,13,13,13,1,paints/images/295.jpg,paints/images/72.jpg,14,Maggie ,1,2020-11-20_17h39.10.466,test3,2020.2.4,MacIntel,60,,,m,0.817565,0,13,13,13,1
,,,,m,0.68455,0,14,14,14,1,paints/images/227.jpg,paints/images/175.jpg,15,Maggie ,1,2020-11-20_17h39.10.466,test3,2020.2.4,MacIntel,60,,,m,0.68455,0,14,14,14,1
,,,,m,0.51044,0,15,15,15,1,paints/images/26.jpg,paints/images/203.jpg,16,Maggie ,1,2020-11-20_17h39.10.466,test3,2020.2.4,MacIntel,60,,,m,0.51044,0,15,15,15,1
,,,,z,0.592805,0,16,16,16,1,paints/images/45.jpg,paints/images/272.jpg,17,Maggie ,1,2020-11-20_17h39.10.466,test3,2020.2.4,MacIntel,60,,,z,0.592805,0,16,16,16,1
,,,,z,0.502465,0,17,17,17,1,paints/images/410.jpg,paints/images/185.jpg,18,Maggie ,1,2020-11-20_17h39.10.466,test3,2020.2.4,MacIntel,60,,,z,0.502465,0,17,17,17,1
,,,,m,0.72643,0,18,18,18,1,paints/images/380.jpg,paints/images/0.jpg,19,Maggie ,1,2020-11-20_17h39.10.466,test3,2020.2.4,MacIntel,60,,,m,0.72643,0,18,18,18,1
,,,,m,0.384555,0,19,19,19,1,paints/images/370.jpg,paints/images/106.jpg,20,Maggie ,1,2020-11-20_17h39.10.466,test3,2020.2.4,MacIntel,60,,,m,0.384555,0,19,19,19,1
,,,,m,0.39333,0,20,20,20,1,paints/images/102.jpg,paints/images/309.jpg,21,Maggie ,1,2020-11-20_17h39.10.466,test3,2020.2.4,MacIntel,60,,,m,0.39333,0,20,20,20,1
,,,,z,0.37019,0,21,21,21,1,paints/images/167.jpg,paints/images/299.jpg,22,Maggie ,1,2020-11-20_17h39.10.466,test3,2020.2.4,MacIntel,60,,,z,0.37019,0,21,21,21,1
,,,,m,0.63524,0,22,22,22,1,paints/images/290.jpg,paints/images/192.jpg,23,Maggie ,1,2020-11-20_17h39.10.466,test3,2020.2.4,MacIntel,60,,,m,0.63524,0,22,22,22,1
,,,,m,0.51031,0,23,23,23,1,paints/images/82.jpg,paints/images/353.jpg,24,Maggie ,1,2020-11-20_17h39.10.466,test3,2020.2.4,MacIntel,60,,,m,0.51031,0,23,23,23,1
,,,,z,0.57662,0,24,24,24,1,paints/images/75.jpg,paints/images/404.jpg,25,Maggie ,1,2020-11-20_17h39.10.466,test3,2020.2.4,MacIntel,60,,,z,0.57662,0,24,24,24,1
,,,,m,0.449295,0,25,25,25,1,paints/images/117.jpg,paints/images/100.jpg,26,Maggie ,1,2020-11-20_17h39.10.466,test3,2020.2.4,MacIntel,60,,,m,0.449295,0,25,25,25,1
,,,,m,0.36927,0,26,26,26,1,paints/images/200.jpg,paints/images/378.jpg,27,Maggie ,1,2020-11-20_17h39.10.466,test3,2020.2.4,MacIntel,60,,,m,0.36927,0,26,26,26,1
,,,,z,0.63391,0,27,27,27,1,paints/images/371.jpg,paints/images/57.jpg,28,Maggie ,1,2020-11-20_17h39.10.466,test3,2020.2.4,MacIntel,60,,,z,0.63391,0,27,27,27,1
,,,,z,0.519055,0,28,28,28,1,paints/images/87.jpg,paints/images/302.jpg,29,Maggie ,1,2020-11-20_17h39.10.466,test3,2020.2.4,MacIntel,60,,,z,0.519055,0,28,28,28,1
,,,,z,0.56925,0,29,29,29,1,paints/images/208.jpg,paints/images/39.jpg,30,Maggie ,1,2020-11-20_17h39.10.466,test3,2020.2.4,MacIntel,60,,,z,0.56925,0,29,29,29,1
,,,,m,0.71331,0,30,30,30,1,paints/images/198.jpg,paints/images/200.jpg,31,Maggie ,1,2020-11-20_17h39.10.466,test3,2020.2.4,MacIntel,60,,,m,0.71331,0,30,30,30,1
,,,,m,2.386565,0,31,31,31,1,paints/images/43.jpg,paints/images/42.jpg,32,Maggie ,1,2020-11-20_17h39.10.466,test3,2020.2.4,MacIntel,60,,,m,2.386565,0,31,31,31,1
,,,,m,1.1688,0,32,32,32,1,paints/images/286.jpg,paints/images/376.jpg,33,Maggie ,1,2020-11-20_17h39.10.466,test3,2020.2.4,MacIntel,60,,,m,1.1688,0,32,32,32,1
,,,,z,2.168275,0,33,33,33,1,paints/images/275.jpg,paints/images/76.jpg,34,Maggie ,1,2020-11-20_17h39.10.466,test3,2020.2.4,MacIntel,60,,,z,2.168275,0,33,33,33,1
,,,,m,0.970265,0,34,34,34,1,paints/images/138.jpg,paints/images/129.jpg,35,Maggie ,1,2020-11-20_17h39.10.466,test3,2020.2.4,MacIntel,60,,,m,0.970265,0,34,34,34,1
,,,,m,1.5676,0,35,35,35,1,paints/images/386.jpg,paints/images/366.jpg,36,Maggie ,1,2020-11-20_17h39.10.466,test3,2020.2.4,MacIntel,60,,,m,1.5676,0,35,35,35,1
,,,,z,1.385555,0,36,36,36,1,paints/images/232.jpg,paints/images/215.jpg,37,Maggie ,1,2020-11-20_17h39.10.466,test3,2020.2.4,MacIntel,60,,,z,1.385555,0,36,36,36,1
,,,,z,1.300915,0,37,37,37,1,paints/images/122.jpg,paints/images/199.jpg,38,Maggie ,1,2020-11-20_17h39.10.466,test3,2020.2.4,MacIntel,60,,,z,1.300915,0,37,37,37,1
,,,,m,1.535745,0,38,38,38,1,paints/images/388.jpg,paints/images/169.jpg,39,Maggie ,1,2020-11-20_17h39.10.466,test3,2020.2.4,MacIntel,60,,,m,1.535745,0,38,38,38,1
,,,,m,1.03513,0,39,39,39,1,paints/images/399.jpg,paints/images/229.jpg,40,Maggie ,1,2020-11-20_17h39.10.466,test3,2020.2.4,MacIntel,60,,,m,1.03513,0,39,39,39,1
,,,,m,2.95986,0,40,40,40,1,paints/images/300.jpg,paints/images/1.jpg,41,Maggie ,1,2020-11-20_17h39.10.466,test3,2020.2.4,MacIntel,60,,,m,2.95986,0,40,40,40,1
,,,,m,1.11107,0,41,41,41,1,paints/images/195.jpg,paints/images/399.jpg,42,Maggie ,1,2020-11-20_17h39.10.466,test3,2020.2.4,MacIntel,60,,,m,1.11107,0,41,41,41,1
,,,,z,0.719435,0,42,42,42,1,paints/images/281.jpg,paints/images/277.jpg,43,Maggie ,1,2020-11-20_17h39.10.466,test3,2020.2.4,MacIntel,60,,,z,0.719435,0,42,42,42,1
,,,,z,0.60197,0,43,43,43,1,paints/images/103.jpg,paints/images/288.jpg,44,Maggie ,1,2020-11-20_17h39.10.466,test3,2020.2.4,MacIntel,60,,,z,0.60197,0,43,43,43,1
,,,,z,0.585535,0,44,44,44,1,paints/images/297.jpg,paints/images/222.jpg,45,Maggie ,1,2020-11-20_17h39.10.466,test3,2020.2.4,MacIntel,60,,,z,0.585535,0,44,44,44,1
,,,,z,0.61238,0,45,45,45,1,paints/images/394.jpg,paints/images/258.jpg,46,Maggie ,1,2020-11-20_17h39.10.466,test3,2020.2.4,MacIntel,60,,,z,0.61238,0,45,45,45,1
,,,,z,0.70611,0,46,46,46,1,paints/images/73.jpg,paints/images/49.jpg,47,Maggie ,1,2020-11-20_17h39.10.466,test3,2020.2.4,MacIntel,60,,,z,0.70611,0,46,46,46,1
,,,,m,0.676885,0,47,47,47,1,paints/images/112.jpg,paints/images/80.jpg,48,Maggie ,1,2020-11-20_17h39.10.466,test3,2020.2.4,MacIntel,60,,,m,0.676885,0,47,47,47,1
,,,,z,0.617365,0,48,48,48,1,paints/images/245.jpg,paints/images/358.jpg,49,Maggie ,1,2020-11-20_17h39.10.466,test3,2020.2.4,MacIntel,60,,,z,0.617365,0,48,48,48,1
,,,,z,0.63597,0,49,49,49,1,paints/images/347.jpg,paints/images/143.jpg,50,Maggie ,1,2020-11-20_17h39.10.466,test3,2020.2.4,MacIntel,60,,,z,0.63597,0,49,49,49,1
,,,,z,0.470595,0,50,50,50,1,paints/images/352.jpg,paints/images/145.jpg,51,Maggie ,1,2020-11-20_17h39.10.466,test3,2020.2.4,MacIntel,60,,,z,0.470595,0,50,50,50,1
,,,,z,0.43433,0,51,51,51,1,paints/images/69.jpg,paints/images/162.jpg,52,Maggie ,1,2020-11-20_17h39.10.466,test3,2020.2.4,MacIntel,60,,,z,0.43433,0,51,51,51,1
,,,,m,0.56038,0,52,52,52,1,paints/images/381.jpg,paints/images/202.jpg,53,Maggie ,1,2020-11-20_17h39.10.466,test3,2020.2.4,MacIntel,60,,,m,0.56038,0,52,52,52,1
,,,,z,0.401345,0,53,53,53,1,paints/images/361.jpg,paints/images/340.jpg,54,Maggie ,1,2020-11-20_17h39.10.466,test3,2020.2.4,MacIntel,60,,,z,0.401345,0,53,53,53,1
,,,,z,0.485495,0,54,54,54,1,paints/images/217.jpg,paints/images/9.jpg,55,Maggie ,1,2020-11-20_17h39.10.466,test3,2020.2.4,MacIntel,60,,,z,0.485495,0,54,54,54,1
,,,,z,0.86739,0,55,55,55,1,paints/images/8.jpg,paints/images/409.jpg,56,Maggie ,1,2020-11-20_17h39.10.466,test3,2020.2.4,MacIntel,60,,,z,0.86739,0,55,55,55,1
,,,,z,0.635585,0,56,56,56,1,paints/images/59.jpg,paints/images/33.jpg,57,Maggie ,1,2020-11-20_17h39.10.466,test3,2020.2.4,MacIntel,60,,,z,0.635585,0,56,56,56,1
,,,,m,0.61755,0,57,57,57,1,paints/images/21.jpg,paints/images/311.jpg,58,Maggie ,1,2020-11-20_17h39.10.466,test3,2020.2.4,MacIntel,60,,,m,0.61755,0,57,57,57,1
,,,,m,0.817255,0,58,58,58,1,paints/images/408.jpg,paints/images/31.jpg,59,Maggie ,1,2020-11-20_17h39.10.466,test3,2020.2.4,MacIntel,60,,,m,0.817255,0,58,58,58,1
,,,,m,0.70326,0,59,59,59,1,paints/images/98.jpg,paints/images/3.jpg,60,Maggie ,1,2020-11-20_17h39.10.466,test3,2020.2.4,MacIntel,60,,,m,0.70326,0,59,59,59,1
,,,,m,1.927065,0,60,60,60,1,paints/images/336.jpg,paints/images/138.jpg,61,Maggie ,1,2020-11-20_17h39.10.466,test3,2020.2.4,MacIntel,60,,,m,1.927065,0,60,60,60,1
,,,,m,0.683145,0,61,61,61,1,paints/images/186.jpg,paints/images/395.jpg,62,Maggie ,1,2020-11-20_17h39.10.466,test3,2020.2.4,MacIntel,60,,,m,0.683145,0,61,61,61,1
,,,,z,3.894215,0,62,62,62,1,paints/images/76.jpg,paints/images/405.jpg,63,Maggie ,1,2020-11-20_17h39.10.466,test3,2020.2.4,MacIntel,60,,,z,3.894215,0,62,62,62,1
,,,,m,0.75923,0,63,63,63,1,paints/images/171.jpg,paints/images/381.jpg,64,Maggie ,1,2020-11-20_17h39.10.466,test3,2020.2.4,MacIntel,60,,,m,0.75923,0,63,63,63,1
,,,,m,2.60193,0,64,64,64,1,paints/images/220.jpg,paints/images/70.jpg,65,Maggie ,1,2020-11-20_17h39.10.466,test3,2020.2.4,MacIntel,60,,,m,2.60193,0,64,64,64,1
,,,,m,1.31095,0,65,65,65,1,paints/images/337.jpg,paints/images/339.jpg,66,Maggie ,1,2020-11-20_17h39.10.466,test3,2020.2.4,MacIntel,60,,,m,1.31095,0,65,65,65,1
,,,,m,1.097585,0,66,66,66,1,paints/images/258.jpg,paints/images/85.jpg,67,Maggie ,1,2020-11-20_17h39.10.466,test3,2020.2.4,MacIntel,60,,,m,1.097585,0,66,66,66,1
,,,,m,1.71059,0,67,67,67,1,paints/images/273.jpg,paints/images/113.jpg,68,Maggie ,1,2020-11-20_17h39.10.466,test3,2020.2.4,MacIntel,60,,,m,1.71059,0,67,67,67,1
,,,,m,0.41988,0,68,68,68,1,paints/images/353.jpg,paints/images/368.jpg,69,Maggie ,1,2020-11-20_17h39.10.466,test3,2020.2.4,MacIntel,60,,,m,0.41988,0,68,68,68,1
,,,,m,0.19328,0,69,69,69,1,paints/images/187.jpg,paints/images/86.jpg,70,Maggie ,1,2020-11-20_17h39.10.466,test3,2020.2.4,MacIntel,60,,,m,0.19328,0,69,69,69,1
,,,,m,0.7672,0,70,70,70,1,paints/images/176.jpg,paints/images/193.jpg,71,Maggie ,1,2020-11-20_17h39.10.466,test3,2020.2.4,MacIntel,60,,,m,0.7672,0,70,70,70,1
,,,,m,0.46104,0,71,71,71,1,paints/images/175.jpg,paints/images/194.jpg,72,Maggie ,1,2020-11-20_17h39.10.466,test3,2020.2.4,MacIntel,60,,,m,0.46104,0,71,71,71,1
,,,,m,0.420065,0,72,72,72,1,paints/images/407.jpg,paints/images/81.jpg,73,Maggie ,1,2020-11-20_17h39.10.466,test3,2020.2.4,MacIntel,60,,,m,0.420065,0,72,72,72,1
,,,,m,0.579675,0,73,73,73,1,paints/images/276.jpg,paints/images/77.jpg,74,Maggie ,1,2020-11-20_17h39.10.466,test3,2020.2.4,MacIntel,60,,,m,0.579675,0,73,73,73,1
,,,,m,0.53559,0,74,74,74,1,paints/images/291.jpg,paints/images/314.jpg,75,Maggie ,1,2020-11-20_17h39.10.466,test3,2020.2.4,MacIntel,60,,,m,0.53559,0,74,74,74,1
,,,,m,0.41014,0,75,75,75,1,paints/images/127.jpg,paints/images/36.jpg,76,Maggie ,1,2020-11-20_17h39.10.466,test3,2020.2.4,MacIntel,60,,,m,0.41014,0,75,75,75,1
,,,,m,0.53568,0,76,76,76,1,paints/images/372.jpg,paints/images/161.jpg,77,Maggie ,1,2020-11-20_17h39.10.466,test3,2020.2.4,MacIntel,60,,,m,0.53568,0,76,76,76,1
,,,,m,0.383495,0,77,77,77,1,paints/images/283.jpg,paints/images/350.jpg,78,Maggie ,1,2020-11-20_17h39.10.466,test3,2020.2.4,MacIntel,60,,,m,0.383495,0,77,77,77,1
,,,,z,0.702325,0,78,78,78,1,paints/images/106.jpg,paints/images/68.jpg,79,Maggie ,1,2020-11-20_17h39.10.466,test3,2020.2.4,MacIntel,60,,,z,0.702325,0,78,78,78,1
,,,,z,0.616955,0,79,79,79,1,paints/images/224.jpg,paints/images/266.jpg,80,Maggie ,1,2020-11-20_17h39.10.466,test3,2020.2.4,MacIntel,60,,,z,0.616955,0,79,79,79,1
,,,,z,0.5183,0,80,80,80,1,paints/images/375.jpg,paints/images/264.jpg,81,Maggie ,1,2020-11-20_17h39.10.466,test3,2020.2.4,MacIntel,60,,,z,0.5183,0,80,80,80,1
,,,,m,0.52095,0,81,81,81,1,paints/images/47.jpg,paints/images/87.jpg,82,Maggie ,1,2020-11-20_17h39.10.466,test3,2020.2.4,MacIntel,60,,,m,0.52095,0,81,81,81,1
,,,,z,0.593875,0,82,82,82,1,paints/images/38.jpg,paints/images/298.jpg,83,Maggie ,1,2020-11-20_17h39.10.466,test3,2020.2.4,MacIntel,60,,,z,0.593875,0,82,82,82,1
,,,,m,0.444035,0,83,83,83,1,paints/images/161.jpg,paints/images/28.jpg,84,Maggie ,1,2020-11-20_17h39.10.466,test3,2020.2.4,MacIntel,60,,,m,0.444035,0,83,83,83,1
,,,,z,0.303675,0,84,84,84,1,paints/images/298.jpg,paints/images/345.jpg,85,Maggie ,1,2020-11-20_17h39.10.466,test3,2020.2.4,MacIntel,60,,,z,0.303675,0,84,84,84,1
,,,,m,0.44854,0,85,85,85,1,paints/images/163.jpg,paints/images/205.jpg,86,Maggie ,1,2020-11-20_17h39.10.466,test3,2020.2.4,MacIntel,60,,,m,0.44854,0,85,85,85,1
,,,,m,0.427645,0,86,86,86,1,paints/images/121.jpg,paints/images/252.jpg,87,Maggie ,1,2020-11-20_17h39.10.466,test3,2020.2.4,MacIntel,60,,,m,0.427645,0,86,86,86,1
,,,,m,0.302165,0,87,87,87,1,paints/images/247.jpg,paints/images/95.jpg,88,Maggie ,1,2020-11-20_17h39.10.466,test3,2020.2.4,MacIntel,60,,,m,0.302165,0,87,87,87,1
,,,,m,0.202825,0,88,88,88,1,paints/images/321.jpg,paints/images/150.jpg,89,Maggie ,1,2020-11-20_17h39.10.466,test3,2020.2.4,MacIntel,60,,,m,0.202825,0,88,88,88,1
,,,,m,0.163855,0,89,89,89,1,paints/images/46.jpg,paints/images/226.jpg,90,Maggie ,1,2020-11-20_17h39.10.466,test3,2020.2.4,MacIntel,60,,,m,0.163855,0,89,89,89,1
,,,,m,0.396305,0,90,90,90,1,paints/images/154.jpg,paints/images/263.jpg,91,Maggie ,1,2020-11-20_17h39.10.466,test3,2020.2.4,MacIntel,60,,,m,0.396305,0,90,90,90,1
,,,,m,0.384955,0,91,91,91,1,paints/images/191.jpg,paints/images/158.jpg,92,Maggie ,1,2020-11-20_17h39.10.466,test3,2020.2.4,MacIntel,60,,,m,0.384955,0,91,91,91,1
,,,,m,0.40999,0,92,92,92,1,paints/images/49.jpg,paints/images/227.jpg,93,Maggie ,1,2020-11-20_17h39.10.466,test3,2020.2.4,MacIntel,60,,,m,0.40999,0,92,92,92,1
,,,,m,0.401675,0,93,93,93,1,paints/images/124.jpg,paints/images/89.jpg,94,Maggie ,1,2020-11-20_17h39.10.466,test3,2020.2.4,MacIntel,60,,,m,0.401675,0,93,93,93,1
,,,,m,0.40041,0,94,94,94,1,paints/images/390.jpg,paints/images/43.jpg,95,Maggie ,1,2020-11-20_17h39.10.466,test3,2020.2.4,MacIntel,60,,,m,0.40041,0,94,94,94,1
,,,,m,0.385415,0,95,95,95,1,paints/images/42.jpg,paints/images/268.jpg,96,Maggie ,1,2020-11-20_17h39.10.466,test3,2020.2.4,MacIntel,60,,,m,0.385415,0,95,95,95,1
,,,,m,0.45284,0,96,96,96,1,paints/images/113.jpg,paints/images/386.jpg,97,Maggie ,1,2020-11-20_17h39.10.466,test3,2020.2.4,MacIntel,60,,,m,0.45284,0,96,96,96,1
,,,,m,0.43547,0,97,97,97,1,paints/images/287.jpg,paints/images/307.jpg,98,Maggie ,1,2020-11-20_17h39.10.466,test3,2020.2.4,MacIntel,60,,,m,0.43547,0,97,97,97,1
,,,,z,0.43531,0,98,98,98,1,paints/images/134.jpg,paints/images/300.jpg,99,Maggie ,1,2020-11-20_17h39.10.466,test3,2020.2.4,MacIntel,60,,,z,0.43531,0,98,98,98,1
,,,,m,0.53647,0,99,99,99,1,paints/images/60.jpg,paints/images/206.jpg,100,Maggie ,1,2020-11-20_17h39.10.466,test3,2020.2.4,MacIntel,60,,,m,0.53647,0,99,99,99,1
,,,,m,0.468355,0,100,100,100,1,paints/images/384.jpg,paints/images/335.jpg,101,Maggie ,1,2020-11-20_17h39.10.466,test3,2020.2.4,MacIntel,60,,,m,0.468355,0,100,100,100,1
,,,,z,0.41865,0,101,101,101,1,paints/images/326.jpg,paints/images/139.jpg,102,Maggie ,1,2020-11-20_17h39.10.466,test3,2020.2.4,MacIntel,60,,,z,0.41865,0,101,101,101,1
,,,,m,0.380065,0,102,102,102,1,paints/images/166.jpg,paints/images/374.jpg,103,Maggie ,1,2020-11-20_17h39.10.466,test3,2020.2.4,MacIntel,60,,,m,0.380065,0,102,102,102,1
,,,,m,0.41088,0,103,103,103,1,paints/images/360.jpg,paints/images/10.jpg,104,Maggie ,1,2020-11-20_17h39.10.466,test3,2020.2.4,MacIntel,60,,,m,0.41088,0,103,103,103,1
,,,,m,0.435655,0,104,104,104,1,paints/images/158.jpg,paints/images/149.jpg,105,Maggie ,1,2020-11-20_17h39.10.466,test3,2020.2.4,MacIntel,60,,,m,0.435655,0,104,104,104,1
,,,,z,0.34926,0,105,105,105,1,paints/images/159.jpg,paints/images/362.jpg,106,Maggie ,1,2020-11-20_17h39.10.466,test3,2020.2.4,MacIntel,60,,,z,0.34926,0,105,105,105,1
,,,,m,0.353925,0,106,106,106,1,paints/images/214.jpg,paints/images/116.jpg,107,Maggie ,1,2020-11-20_17h39.10.466,test3,2020.2.4,MacIntel,60,,,m,0.353925,0,106,106,106,1
,,,,m,0.369405,0,107,107,107,1,paints/images/256.jpg,paints/images/323.jpg,108,Maggie ,1,2020-11-20_17h39.10.466,test3,2020.2.4,MacIntel,60,,,m,0.369405,0,107,107,107,1
,,,,m,0.34979,0,108,108,108,1,paints/images/36.jpg,paints/images/157.jpg,109,Maggie ,1,2020-11-20_17h39.10.466,test3,2020.2.4,MacIntel,60,,,m,0.34979,0,108,108,108,1
,,,,z,0.31361,0,109,109,109,1,paints/images/101.jpg,paints/images/126.jpg,110,Maggie ,1,2020-11-20_17h39.10.466,test3,2020.2.4,MacIntel,60,,,z,0.31361,0,109,109,109,1
,,,,m,0.30173,0,110,110,110,1,paints/images/265.jpg,paints/images/35.jpg,111,Maggie ,1,2020-11-20_17h39.10.466,test3,2020.2.4,MacIntel,60,,,m,0.30173,0,110,110,110,1
,,,,m,0.283205,0,111,111,111,1,paints/images/392.jpg,paints/images/233.jpg,112,Maggie ,1,2020-11-20_17h39.10.466,test3,2020.2.4,MacIntel,60,,,m,0.283205,0,111,111,111,1
,,,,m,0.31559,0,112,112,112,1,paints/images/251.jpg,paints/images/12.jpg,113,Maggie ,1,2020-11-20_17h39.10.466,test3,2020.2.4,MacIntel,60,,,m,0.31559,0,112,112,112,1
,,,,z,0.302305,0,113,113,113,1,paints/images/12.jpg,paints/images/144.jpg,114,Maggie ,1,2020-11-20_17h39.10.466,test3,2020.2.4,MacIntel,60,,,z,0.302305,0,113,113,113,1
,,,,m,0.276665,0,114,114,114,1,paints/images/133.jpg,paints/images/331.jpg,115,Maggie ,1,2020-11-20_17h39.10.466,test3,2020.2.4,MacIntel,60,,,m,0.276665,0,114,114,114,1
,,,,m,0.281565,0,115,115,115,1,paints/images/383.jpg,paints/images/99.jpg,116,Maggie ,1,2020-11-20_17h39.10.466,test3,2020.2.4,MacIntel,60,,,m,0.281565,0,115,115,115,1
,,,,m,0.33552,0,116,116,116,1,paints/images/211.jpg,paints/images/303.jpg,117,Maggie ,1,2020-11-20_17h39.10.466,test3,2020.2.4,MacIntel,60,,,m,0.33552,0,116,116,116,1
,,,,z,0.24347,0,117,117,117,1,paints/images/201.jpg,paints/images/238.jpg,118,Maggie ,1,2020-11-20_17h39.10.466,test3,2020.2.4,MacIntel,60,,,z,0.24347,0,117,117,117,1
,,,,m,0.268865,0,118,118,118,1,paints/images/205.jpg,paints/images/102.jpg,119,Maggie ,1,2020-11-20_17h39.10.466,test3,2020.2.4,MacIntel,60,,,m,0.268865,0,118,118,118,1
,,,,m,0.235525,0,119,119,119,1,paints/images/270.jpg,paints/images/322.jpg,120,Maggie ,1,2020-11-20_17h39.10.466,test3,2020.2.4,MacIntel,60,,,m,0.235525,0,119,119,119,1
,,,,m,0.251015,0,120,120,120,1,paints/images/341.jpg,paints/images/248.jpg,121,Maggie ,1,2020-11-20_17h39.10.466,test3,2020.2.4,MacIntel,60,,,m,0.251015,0,120,120,120,1
,,,,z,0.24373,0,121,121,121,1,paints/images/141.jpg,paints/images/94.jpg,122,Maggie ,1,2020-11-20_17h39.10.466,test3,2020.2.4,MacIntel,60,,,z,0.24373,0,121,121,121,1
,,,,m,0.259375,0,122,122,122,1,paints/images/83.jpg,paints/images/327.jpg,123,Maggie ,1,2020-11-20_17h39.10.466,test3,2020.2.4,MacIntel,60,,,m,0.259375,0,122,122,122,1
,,,,m,0.269025,0,123,123,123,1,paints/images/327.jpg,paints/images/110.jpg,124,Maggie ,1,2020-11-20_17h39.10.466,test3,2020.2.4,MacIntel,60,,,m,0.269025,0,123,123,123,1
,,,,m,0.235545,0,124,124,124,1,paints/images/157.jpg,paints/images/79.jpg,125,Maggie ,1,2020-11-20_17h39.10.466,test3,2020.2.4,MacIntel,60,,,m,0.235545,0,124,124,124,1
,,,,z,0.27917,0,125,125,125,1,paints/images/193.jpg,paints/images/74.jpg,126,Maggie ,1,2020-11-20_17h39.10.466,test3,2020.2.4,MacIntel,60,,,z,0.27917,0,125,125,125,1
,,,,m,0.268675,0,126,126,126,1,paints/images/140.jpg,paints/images/292.jpg,127,Maggie ,1,2020-11-20_17h39.10.466,test3,2020.2.4,MacIntel,60,,,m,0.268675,0,126,126,126,1
,,,,m,0.40229,0,127,127,127,1,paints/images/107.jpg,paints/images/92.jpg,128,Maggie ,1,2020-11-20_17h39.10.466,test3,2020.2.4,MacIntel,60,,,m,0.40229,0,127,127,127,1
,,,,z,0.285825,0,128,128,128,1,paints/images/7.jpg,paints/images/56.jpg,129,Maggie ,1,2020-11-20_17h39.10.466,test3,2020.2.4,MacIntel,60,,,z,0.285825,0,128,128,128,1
,,,,m,0.20111,0,129,129,129,1,paints/images/177.jpg,paints/images/141.jpg,130,Maggie ,1,2020-11-20_17h39.10.466,test3,2020.2.4,MacIntel,60,,,m,0.20111,0,129,129,129,1
,,,,z,0.134845,0,130,130,130,1,paints/images/244.jpg,paints/images/250.jpg,131,Maggie ,1,2020-11-20_17h39.10.466,test3,2020.2.4,MacIntel,60,,,z,0.134845,0,130,130,130,1
,,,,m,0.184335,0,131,131,131,1,paints/images/253.jpg,paints/images/8.jpg,132,Maggie ,1,2020-11-20_17h39.10.466,test3,2020.2.4,MacIntel,60,,,m,0.184335,0,131,131,131,1
,,,,z,0.1855,0,132,132,132,1,paints/images/136.jpg,paints/images/108.jpg,133,Maggie ,1,2020-11-20_17h39.10.466,test3,2020.2.4,MacIntel,60,,,z,0.1855,0,132,132,132,1
,,,,z,0.56899,0,133,133,133,1,paints/images/165.jpg,paints/images/147.jpg,134,Maggie ,1,2020-11-20_17h39.10.466,test3,2020.2.4,MacIntel,60,,,z,0.56899,0,133,133,133,1
,,,,m,0.460735,0,134,134,134,1,paints/images/39.jpg,paints/images/387.jpg,135,Maggie ,1,2020-11-20_17h39.10.466,test3,2020.2.4,MacIntel,60,,,m,0.460735,0,134,134,134,1
,,,,z,0.584545,0,135,135,135,1,paints/images/271.jpg,paints/images/125.jpg,136,Maggie ,1,2020-11-20_17h39.10.466,test3,2020.2.4,MacIntel,60,,,z,0.584545,0,135,135,135,1
,,,,m,0.518745,0,136,136,136,1,paints/images/90.jpg,paints/images/130.jpg,137,Maggie ,1,2020-11-20_17h39.10.466,test3,2020.2.4,MacIntel,60,,,m,0.518745,0,136,136,136,1
,,,,z,0.66841,0,137,137,137,1,paints/images/362.jpg,paints/images/60.jpg,138,Maggie ,1,2020-11-20_17h39.10.466,test3,2020.2.4,MacIntel,60,,,z,0.66841,0,137,137,137,1
,,,,m,0.45351,0,138,138,138,1,paints/images/218.jpg,paints/images/153.jpg,139,Maggie ,1,2020-11-20_17h39.10.466,test3,2020.2.4,MacIntel,60,,,m,0.45351,0,138,138,138,1
,,,,z,0.58754,0,139,139,139,1,paints/images/18.jpg,paints/images/324.jpg,140,Maggie ,1,2020-11-20_17h39.10.466,test3,2020.2.4,MacIntel,60,,,z,0.58754,0,139,139,139,1
,,,,m,0.43525,0,140,140,140,1,paints/images/29.jpg,paints/images/120.jpg,141,Maggie ,1,2020-11-20_17h39.10.466,test3,2020.2.4,MacIntel,60,,,m,0.43525,0,140,140,140,1
,,,,m,0.384665,0,141,141,141,1,paints/images/155.jpg,paints/images/142.jpg,142,Maggie ,1,2020-11-20_17h39.10.466,test3,2020.2.4,MacIntel,60,,,m,0.384665,0,141,141,141,1
,,,,z,0.319185,0,142,142,142,1,paints/images/148.jpg,paints/images/396.jpg,143,Maggie ,1,2020-11-20_17h39.10.466,test3,2020.2.4,MacIntel,60,,,z,0.319185,0,142,142,142,1
,,,,m,0.401325,0,143,143,143,1,paints/images/373.jpg,paints/images/218.jpg,144,Maggie ,1,2020-11-20_17h39.10.466,test3,2020.2.4,MacIntel,60,,,m,0.401325,0,143,143,143,1
,,,,m,0.36682,0,144,144,144,1,paints/images/231.jpg,paints/images/73.jpg,145,Maggie ,1,2020-11-20_17h39.10.466,test3,2020.2.4,MacIntel,60,,,m,0.36682,0,144,144,144,1
,,,,z,0.301755,0,145,145,145,1,paints/images/240.jpg,paints/images/356.jpg,146,Maggie ,1,2020-11-20_17h39.10.466,test3,2020.2.4,MacIntel,60,,,z,0.301755,0,145,145,145,1
,,,,m,0.33554,0,146,146,146,1,paints/images/332.jpg,paints/images/347.jpg,147,Maggie ,1,2020-11-20_17h39.10.466,test3,2020.2.4,MacIntel,60,,,m,0.33554,0,146,146,146,1
,,,,m,0.384355,0,147,147,147,1,paints/images/254.jpg,paints/images/310.jpg,148,Maggie ,1,2020-11-20_17h39.10.466,test3,2020.2.4,MacIntel,60,,,m,0.384355,0,147,147,147,1
,,,,m,0.41804,0,148,148,148,1,paints/images/405.jpg,paints/images/385.jpg,149,Maggie ,1,2020-11-20_17h39.10.466,test3,2020.2.4,MacIntel,60,,,m,0.41804,0,148,148,148,1
,,,,m,0.36938,0,149,149,149,1,paints/images/345.jpg,paints/images/274.jpg,150,Maggie ,1,2020-11-20_17h39.10.466,test3,2020.2.4,MacIntel,60,,,m,0.36938,0,149,149,149,1
,,,,m,0.352405,0,150,150,150,1,paints/images/363.jpg,paints/images/18.jpg,151,Maggie ,1,2020-11-20_17h39.10.466,test3,2020.2.4,MacIntel,60,,,m,0.352405,0,150,150,150,1
,,,,m,0.31876,0,151,151,151,1,paints/images/37.jpg,paints/images/53.jpg,152,Maggie ,1,2020-11-20_17h39.10.466,test3,2020.2.4,MacIntel,60,,,m,0.31876,0,151,151,151,1
,,,,m,0.352555,0,152,152,152,1,paints/images/315.jpg,paints/images/319.jpg,153,Maggie ,1,2020-11-20_17h39.10.466,test3,2020.2.4,MacIntel,60,,,m,0.352555,0,152,152,152,1
,,,,m,0.33528,0,153,153,153,1,paints/images/74.jpg,paints/images/403.jpg,154,Maggie ,1,2020-11-20_17h39.10.466,test3,2020.2.4,MacIntel,60,,,m,0.33528,0,153,153,153,1
,,,,m,0.30251,0,154,154,154,1,paints/images/156.jpg,paints/images/246.jpg,155,Maggie ,1,2020-11-20_17h39.10.466,test3,2020.2.4,MacIntel,60,,,m,0.30251,0,154,154,154,1
,,,,m,0.2686,0,155,155,155,1,paints/images/285.jpg,paints/images/270.jpg,156,Maggie ,1,2020-11-20_17h39.10.466,test3,2020.2.4,MacIntel,60,,,m,0.2686,0,155,155,155,1
,,,,m,0.318515,0,156,156,156,1,paints/images/17.jpg,paints/images/398.jpg,157,Maggie ,1,2020-11-20_17h39.10.466,test3,2020.2.4,MacIntel,60,,,m,0.318515,0,156,156,156,1
,,,,z,0.536795,0,157,157,157,1,paints/images/335.jpg,paints/images/27.jpg,158,Maggie ,1,2020-11-20_17h39.10.466,test3,2020.2.4,MacIntel,60,,,z,0.536795,0,157,157,157,1
,,,,z,0.42662,0,158,158,158,1,paints/images/350.jpg,paints/images/156.jpg,159,Maggie ,1,2020-11-20_17h39.10.466,test3,2020.2.4,MacIntel,60,,,z,0.42662,0,158,158,158,1
,,,,m,0.285345,0,159,159,159,1,paints/images/31.jpg,paints/images/231.jpg,160,Maggie ,1,2020-11-20_17h39.10.466,test3,2020.2.4,MacIntel,60,,,m,0.285345,0,159,159,159,1
,,,,z,0.319995,0,160,160,160,1,paints/images/114.jpg,paints/images/333.jpg,161,Maggie ,1,2020-11-20_17h39.10.466,test3,2020.2.4,MacIntel,60,,,z,0.319995,0,160,160,160,1
,,,,m,0.29497,0,161,161,161,1,paints/images/79.jpg,paints/images/408.jpg,162,Maggie ,1,2020-11-20_17h39.10.466,test3,2020.2.4,MacIntel,60,,,m,0.29497,0,161,161,161,1
,,,,z,0.26775,0,162,162,162,1,paints/images/338.jpg,paints/images/279.jpg,163,Maggie ,1,2020-11-20_17h39.10.466,test3,2020.2.4,MacIntel,60,,,z,0.26775,0,162,162,162,1
,,,,z,0.36859,0,163,163,163,1,paints/images/354.jpg,paints/images/304.jpg,164,Maggie ,1,2020-11-20_17h39.10.466,test3,2020.2.4,MacIntel,60,,,z,0.36859,0,163,163,163,1
,,,,z,0.3365,0,164,164,164,1,paints/images/128.jpg,paints/images/276.jpg,165,Maggie ,1,2020-11-20_17h39.10.466,test3,2020.2.4,MacIntel,60,,,z,0.3365,0,164,164,164,1
,,,,z,0.32887,0,165,165,165,1,paints/images/35.jpg,paints/images/188.jpg,166,Maggie ,1,2020-11-20_17h39.10.466,test3,2020.2.4,MacIntel,60,,,z,0.32887,0,165,165,165,1
,,,,z,0.720065,0,166,166,166,1,paints/images/16.jpg,paints/images/29.jpg,167,Maggie ,1,2020-11-20_17h39.10.466,test3,2020.2.4,MacIntel,60,,,z,0.720065,0,166,166,166,1
,,,,z,0.40256,0,167,167,167,1,paints/images/119.jpg,paints/images/251.jpg,168,Maggie ,1,2020-11-20_17h39.10.466,test3,2020.2.4,MacIntel,60,,,z,0.40256,0,167,167,167,1
,,,,m,0.80054,0,168,168,168,1,paints/images/207.jpg,paints/images/65.jpg,169,Maggie ,1,2020-11-20_17h39.10.466,test3,2020.2.4,MacIntel,60,,,m,0.80054,0,168,168,168,1
,,,,z,0.351535,0,169,169,169,1,paints/images/173.jpg,paints/images/373.jpg,170,Maggie ,1,2020-11-20_17h39.10.466,test3,2020.2.4,MacIntel,60,,,z,0.351535,0,169,169,169,1
,,,,z,0.368025,0,170,170,170,1,paints/images/135.jpg,paints/images/196.jpg,171,Maggie ,1,2020-11-20_17h39.10.466,test3,2020.2.4,MacIntel,60,,,z,0.368025,0,170,170,170,1
,,,,z,0.33566,0,171,171,171,1,paints/images/55.jpg,paints/images/316.jpg,172,Maggie ,1,2020-11-20_17h39.10.466,test3,2020.2.4,MacIntel,60,,,z,0.33566,0,171,171,171,1
,,,,z,0.302265,0,172,172,172,1,paints/images/343.jpg,paints/images/383.jpg,173,Maggie ,1,2020-11-20_17h39.10.466,test3,2020.2.4,MacIntel,60,,,z,0.302265,0,172,172,172,1
,,,,z,0.318005,0,173,173,173,1,paints/images/203.jpg,paints/images/186.jpg,174,Maggie ,1,2020-11-20_17h39.10.466,test3,2020.2.4,MacIntel,60,,,z,0.318005,0,173,173,173,1
,,,,z,0.32016,0,174,174,174,1,paints/images/123.jpg,paints/images/128.jpg,175,Maggie ,1,2020-11-20_17h39.10.466,test3,2020.2.4,MacIntel,60,,,z,0.32016,0,174,174,174,1
,,,,z,0.33657,0,175,175,175,1,paints/images/391.jpg,paints/images/208.jpg,176,Maggie ,1,2020-11-20_17h39.10.466,test3,2020.2.4,MacIntel,60,,,z,0.33657,0,175,175,175,1
,,,,z,0.33667,0,176,176,176,1,paints/images/105.jpg,paints/images/313.jpg,177,Maggie ,1,2020-11-20_17h39.10.466,test3,2020.2.4,MacIntel,60,,,z,0.33667,0,176,176,176,1
,,,,m,0.57031,0,177,177,177,1,paints/images/184.jpg,paints/images/69.jpg,178,Maggie ,1,2020-11-20_17h39.10.466,test3,2020.2.4,MacIntel,60,,,m,0.57031,0,177,177,177,1
,,,,z,0.335055,0,178,178,178,1,paints/images/63.jpg,paints/images/191.jpg,179,Maggie ,1,2020-11-20_17h39.10.466,test3,2020.2.4,MacIntel,60,,,z,0.335055,0,178,178,178,1
,,,,z,0.336765,0,179,179,179,1,paints/images/85.jpg,paints/images/390.jpg,180,Maggie ,1,2020-11-20_17h39.10.466,test3,2020.2.4,MacIntel,60,,,z,0.336765,0,179,179,179,1
,,,,z,0.31954,0,180,180,180,1,paints/images/179.jpg,paints/images/177.jpg,181,Maggie ,1,2020-11-20_17h39.10.466,test3,2020.2.4,MacIntel,60,,,z,0.31954,0,180,180,180,1
,,,,z,0.337605,0,181,181,181,1,paints/images/320.jpg,paints/images/171.jpg,182,Maggie ,1,2020-11-20_17h39.10.466,test3,2020.2.4,MacIntel,60,,,z,0.337605,0,181,181,181,1
,,,,z,0.285695,0,182,182,182,1,paints/images/77.jpg,paints/images/406.jpg,183,Maggie ,1,2020-11-20_17h39.10.466,test3,2020.2.4,MacIntel,60,,,z,0.285695,0,182,182,182,1
,,,,m,0.48511,0,183,183,183,1,paints/images/66.jpg,paints/images/255.jpg,184,Maggie ,1,2020-11-20_17h39.10.466,test3,2020.2.4,MacIntel,60,,,m,0.48511,0,183,183,183,1
,,,,m,0.502555,0,184,184,184,1,paints/images/308.jpg,paints/images/41.jpg,185,Maggie ,1,2020-11-20_17h39.10.466,test3,2020.2.4,MacIntel,60,,,m,0.502555,0,184,184,184,1
,,,,m,0.454485,0,185,185,185,1,paints/images/260.jpg,paints/images/297.jpg,186,Maggie ,1,2020-11-20_17h39.10.466,test3,2020.2.4,MacIntel,60,,,m,0.454485,0,185,185,185,1
,,,,m,0.585725,0,186,186,186,1,paints/images/126.jpg,paints/images/273.jpg,187,Maggie ,1,2020-11-20_17h39.10.466,test3,2020.2.4,MacIntel,60,,,m,0.585725,0,186,186,186,1
,,,,m,1.91036,0,187,187,187,1,paints/images/68.jpg,paints/images/189.jpg,188,Maggie ,1,2020-11-20_17h39.10.466,test3,2020.2.4,MacIntel,60,,,m,1.91036,0,187,187,187,1
,,,,m,0.419775,0,188,188,188,1,paints/images/144.jpg,paints/images/280.jpg,189,Maggie ,1,2020-11-20_17h39.10.466,test3,2020.2.4,MacIntel,60,,,m,0.419775,0,188,188,188,1
,,,,m,0.38428,0,189,189,189,1,paints/images/24.jpg,paints/images/389.jpg,190,Maggie ,1,2020-11-20_17h39.10.466,test3,2020.2.4,MacIntel,60,,,m,0.38428,0,189,189,189,1
,,,,m,0.34403,0,190,190,190,1,paints/images/222.jpg,paints/images/7.jpg,191,Maggie ,1,2020-11-20_17h39.10.466,test3,2020.2.4,MacIntel,60,,,m,0.34403,0,190,190,190,1
,,,,m,0.46796,0,191,191,191,1,paints/images/282.jpg,paints/images/278.jpg,192,Maggie ,1,2020-11-20_17h39.10.466,test3,2020.2.4,MacIntel,60,,,m,0.46796,0,191,191,191,1
,,,,m,0.302575,0,192,192,192,1,paints/images/190.jpg,paints/images/61.jpg,193,Maggie ,1,2020-11-20_17h39.10.466,test3,2020.2.4,MacIntel,60,,,m,0.302575,0,192,192,192,1
,,,,m,0.3021,0,193,193,193,1,paints/images/212.jpg,paints/images/402.jpg,194,Maggie ,1,2020-11-20_17h39.10.466,test3,2020.2.4,MacIntel,60,,,m,0.3021,0,193,193,193,1
,,,,m,0.30185,0,194,194,194,1,paints/images/80.jpg,paints/images/410.jpg,195,Maggie ,1,2020-11-20_17h39.10.466,test3,2020.2.4,MacIntel,60,,,m,0.30185,0,194,194,194,1
,,,,m,0.32275,0,195,195,195,1,paints/images/252.jpg,paints/images/382.jpg,196,Maggie ,1,2020-11-20_17h39.10.466,test3,2020.2.4,MacIntel,60,,,m,0.32275,0,195,195,195,1
,,,,m,0.326275,0,196,196,196,1,paints/images/71.jpg,paints/images/337.jpg,197,Maggie ,1,2020-11-20_17h39.10.466,test3,2020.2.4,MacIntel,60,,,m,0.326275,0,196,196,196,1
,,,,m,0.28231,0,197,197,197,1,paints/images/264.jpg,paints/images/118.jpg,198,Maggie ,1,2020-11-20_17h39.10.466,test3,2020.2.4,MacIntel,60,,,m,0.28231,0,197,197,197,1
,,,,m,0.76862,0,198,198,198,1,paints/images/180.jpg,paints/images/357.jpg,199,Maggie ,1,2020-11-20_17h39.10.466,test3,2020.2.4,MacIntel,60,,,m,0.76862,0,198,198,198,1
,,,,m,0.51654,0,199,199,199,1,paints/images/357.jpg,paints/images/15.jpg,200,Maggie ,1,2020-11-20_17h39.10.466,test3,2020.2.4,MacIntel,60,,,m,0.51654,0,199,199,199,1
,,,,m,0.495405,0,200,200,200,1,paints/images/401.jpg,paints/images/220.jpg,201,Maggie ,1,2020-11-20_17h39.10.466,test3,2020.2.4,MacIntel,60,,,m,0.495405,0,200,200,200,1
,,,,m,0.468665,0,201,201,201,1,paints/images/95.jpg,paints/images/135.jpg,202,Maggie ,1,2020-11-20_17h39.10.466,test3,2020.2.4,MacIntel,60,,,m,0.468665,0,201,201,201,1
,,,,m,0.385815,0,202,202,202,1,paints/images/152.jpg,paints/images/234.jpg,203,Maggie ,1,2020-11-20_17h39.10.466,test3,2020.2.4,MacIntel,60,,,m,0.385815,0,202,202,202,1
,,,,m,0.29371,0,203,203,203,1,paints/images/30.jpg,paints/images/88.jpg,204,Maggie ,1,2020-11-20_17h39.10.466,test3,2020.2.4,MacIntel,60,,,m,0.29371,0,203,203,203,1
,,,,m,0.303825,0,204,204,204,1,paints/images/194.jpg,paints/images/392.jpg,205,Maggie ,1,2020-11-20_17h39.10.466,test3,2020.2.4,MacIntel,60,,,m,0.303825,0,204,204,204,1
,,,,m,0.383745,0,205,205,205,1,paints/images/351.jpg,paints/images/103.jpg,206,Maggie ,1,2020-11-20_17h39.10.466,test3,2020.2.4,MacIntel,60,,,m,0.383745,0,205,205,205,1
,,,,m,0.35227,0,206,206,206,1,paints/images/236.jpg,paints/images/369.jpg,207,Maggie ,1,2020-11-20_17h39.10.466,test3,2020.2.4,MacIntel,60,,,m,0.35227,0,206,206,206,1
,,,,z,0.427135,0,207,207,207,1,paints/images/219.jpg,paints/images/136.jpg,208,Maggie ,1,2020-11-20_17h39.10.466,test3,2020.2.4,MacIntel,60,,,z,0.427135,0,207,207,207,1
,,,,m,0.679355,0,208,208,208,1,paints/images/306.jpg,paints/images/239.jpg,209,Maggie ,1,2020-11-20_17h39.10.466,test3,2020.2.4,MacIntel,60,,,m,0.679355,0,208,208,208,1
,,,,z,0.65112,0,209,209,209,1,paints/images/108.jpg,paints/images/259.jpg,210,Maggie ,1,2020-11-20_17h39.10.466,test3,2020.2.4,MacIntel,60,,,z,0.65112,0,209,209,209,1
,,,,m,0.543765,0,210,210,210,1,paints/images/210.jpg,paints/images/30.jpg,211,Maggie ,1,2020-11-20_17h39.10.466,test3,2020.2.4,MacIntel,60,,,m,0.543765,0,210,210,210,1
