key_resp.keys,key_resp.rt,key_resp_3.keys,key_resp_3.rt,key_resp_2.keys,key_resp_2.rt,trials.thisRepN,trials.thisTrialN,trials.thisN,trials.thisIndex,trials.ran,image_left,image_right,trial_num,participant,session,date,expName,psychopyVersion,OS,frameRate
space,4.883765,space,7.077195,m,7.698805,0,0,0,0,1,paints/images/344.jpg,paints/images/121.jpg,1,ningtong,001,2020-11-19_14h44.26.137,test3,2020.2.5,MacIntel,60
,,,,z,2.890565,0,1,1,1,1,paints/images/369.jpg,paints/images/367.jpg,2,ningtong,001,2020-11-19_14h44.26.137,test3,2020.2.5,MacIntel,60
,,,,z,3.901185,0,2,2,2,1,paints/images/385.jpg,paints/images/253.jpg,3,ningtong,001,2020-11-19_14h44.26.137,test3,2020.2.5,MacIntel,60
,,,,m,3.19505,0,3,3,3,1,paints/images/230.jpg,paints/images/124.jpg,4,ningtong,001,2020-11-19_14h44.26.137,test3,2020.2.5,MacIntel,60
,,,,z,6.717365,0,4,4,4,1,paints/images/284.jpg,paints/images/172.jpg,5,ningtong,001,2020-11-19_14h44.26.137,test3,2020.2.5,MacIntel,60
,,,,z,20.35084,0,5,5,5,1,paints/images/325.jpg,paints/images/5.jpg,6,ningtong,001,2020-11-19_14h44.26.137,test3,2020.2.5,MacIntel,60
,,,,z,1.40098,0,6,6,6,1,paints/images/2.jpg,paints/images/107.jpg,7,ningtong,001,2020-11-19_14h44.26.137,test3,2020.2.5,MacIntel,60
,,,,m,1.421095,0,7,7,7,1,paints/images/330.jpg,paints/images/93.jpg,8,ningtong,001,2020-11-19_14h44.26.137,test3,2020.2.5,MacIntel,60
,,,,z,2.137755,0,8,8,8,1,paints/images/197.jpg,paints/images/20.jpg,9,ningtong,001,2020-11-19_14h44.26.137,test3,2020.2.5,MacIntel,60
,,,,z,1.38476,0,9,9,9,1,paints/images/233.jpg,paints/images/346.jpg,10,ningtong,001,2020-11-19_14h44.26.137,test3,2020.2.5,MacIntel,60
,,,,z,1.42835,0,10,10,10,1,paints/images/289.jpg,paints/images/317.jpg,11,ningtong,001,2020-11-19_14h44.26.137,test3,2020.2.5,MacIntel,60
,,,,m,1.10128,0,11,11,11,1,paints/images/189.jpg,paints/images/230.jpg,12,ningtong,001,2020-11-19_14h44.26.137,test3,2020.2.5,MacIntel,60
,,,,m,2.104145,0,12,12,12,1,paints/images/28.jpg,paints/images/401.jpg,13,ningtong,001,2020-11-19_14h44.26.137,test3,2020.2.5,MacIntel,60
,,,,m,1.71128,0,13,13,13,1,paints/images/183.jpg,paints/images/198.jpg,14,ningtong,001,2020-11-19_14h44.26.137,test3,2020.2.5,MacIntel,60
,,,,m,2.05909,0,14,14,14,1,paints/images/223.jpg,paints/images/249.jpg,15,ningtong,001,2020-11-19_14h44.26.137,test3,2020.2.5,MacIntel,60
,,,,m,3.015055,0,15,15,15,1,paints/images/331.jpg,paints/images/168.jpg,16,ningtong,001,2020-11-19_14h44.26.137,test3,2020.2.5,MacIntel,60
,,,,z,1.54161,0,16,16,16,1,paints/images/129.jpg,paints/images/21.jpg,17,ningtong,001,2020-11-19_14h44.26.137,test3,2020.2.5,MacIntel,60
,,,,m,2.13133,0,17,17,17,1,paints/images/250.jpg,paints/images/290.jpg,18,ningtong,001,2020-11-19_14h44.26.137,test3,2020.2.5,MacIntel,60
,,,,z,1.796785,0,18,18,18,1,paints/images/342.jpg,paints/images/371.jpg,19,ningtong,001,2020-11-19_14h44.26.137,test3,2020.2.5,MacIntel,60
,,,,m,1.184375,0,19,19,19,1,paints/images/312.jpg,paints/images/349.jpg,20,ningtong,001,2020-11-19_14h44.26.137,test3,2020.2.5,MacIntel,60
,,,,z,1.367555,0,20,20,20,1,paints/images/44.jpg,paints/images/23.jpg,21,ningtong,001,2020-11-19_14h44.26.137,test3,2020.2.5,MacIntel,60
,,,,z,0.875405,0,21,21,21,1,paints/images/209.jpg,paints/images/236.jpg,22,ningtong,001,2020-11-19_14h44.26.137,test3,2020.2.5,MacIntel,60
,,,,m,1.709665,0,22,22,22,1,paints/images/314.jpg,paints/images/326.jpg,23,ningtong,001,2020-11-19_14h44.26.137,test3,2020.2.5,MacIntel,60
,,,,z,2.40705,0,23,23,23,1,paints/images/374.jpg,paints/images/397.jpg,24,ningtong,001,2020-11-19_14h44.26.137,test3,2020.2.5,MacIntel,60
,,,,z,1.395305,0,24,24,24,1,paints/images/355.jpg,paints/images/400.jpg,25,ningtong,001,2020-11-19_14h44.26.137,test3,2020.2.5,MacIntel,60
,,,,m,1.196045,0,25,25,25,1,paints/images/346.jpg,paints/images/223.jpg,26,ningtong,001,2020-11-19_14h44.26.137,test3,2020.2.5,MacIntel,60
,,,,z,2.134115,0,26,26,26,1,paints/images/292.jpg,paints/images/122.jpg,27,ningtong,001,2020-11-19_14h44.26.137,test3,2020.2.5,MacIntel,60
,,,,m,1.13485,0,27,27,27,1,paints/images/81.jpg,paints/images/294.jpg,28,ningtong,001,2020-11-19_14h44.26.137,test3,2020.2.5,MacIntel,60
,,,,z,2.476175,0,28,28,28,1,paints/images/359.jpg,paints/images/370.jpg,29,ningtong,001,2020-11-19_14h44.26.137,test3,2020.2.5,MacIntel,60
,,,,z,1.73435,0,29,29,29,1,paints/images/88.jpg,paints/images/119.jpg,30,ningtong,001,2020-11-19_14h44.26.137,test3,2020.2.5,MacIntel,60
,,,,z,1.483125,0,30,30,30,1,paints/images/178.jpg,paints/images/47.jpg,31,ningtong,001,2020-11-19_14h44.26.137,test3,2020.2.5,MacIntel,60
,,,,m,4.22525,0,31,31,31,1,paints/images/139.jpg,paints/images/377.jpg,32,ningtong,001,2020-11-19_14h44.26.137,test3,2020.2.5,MacIntel,60
,,,,m,2.174775,0,32,32,32,1,paints/images/142.jpg,paints/images/379.jpg,33,ningtong,001,2020-11-19_14h44.26.137,test3,2020.2.5,MacIntel,60
,,,,m,1.299095,0,33,33,33,1,paints/images/366.jpg,paints/images/22.jpg,34,ningtong,001,2020-11-19_14h44.26.137,test3,2020.2.5,MacIntel,60
,,,,z,3.590705,0,34,34,34,1,paints/images/277.jpg,paints/images/365.jpg,35,ningtong,001,2020-11-19_14h44.26.137,test3,2020.2.5,MacIntel,60
,,,,m,1.447015,0,35,35,35,1,paints/images/406.jpg,paints/images/388.jpg,36,ningtong,001,2020-11-19_14h44.26.137,test3,2020.2.5,MacIntel,60
,,,,m,1.784645,0,36,36,36,1,paints/images/389.jpg,paints/images/104.jpg,37,ningtong,001,2020-11-19_14h44.26.137,test3,2020.2.5,MacIntel,60
,,,,z,1.43534,0,37,37,37,1,paints/images/20.jpg,paints/images/84.jpg,38,ningtong,001,2020-11-19_14h44.26.137,test3,2020.2.5,MacIntel,60
,,,,m,0.9351,0,38,38,38,1,paints/images/169.jpg,paints/images/163.jpg,39,ningtong,001,2020-11-19_14h44.26.137,test3,2020.2.5,MacIntel,60
,,,,z,1.985375,0,39,39,39,1,paints/images/58.jpg,paints/images/359.jpg,40,ningtong,001,2020-11-19_14h44.26.137,test3,2020.2.5,MacIntel,60
,,,,m,1.43854,0,40,40,40,1,paints/images/376.jpg,paints/images/256.jpg,41,ningtong,001,2020-11-19_14h44.26.137,test3,2020.2.5,MacIntel,60
,,,,m,1.56759,0,41,41,41,1,paints/images/33.jpg,paints/images/261.jpg,42,ningtong,001,2020-11-19_14h44.26.137,test3,2020.2.5,MacIntel,60
,,,,z,0.868365,0,42,42,42,1,paints/images/294.jpg,paints/images/96.jpg,43,ningtong,001,2020-11-19_14h44.26.137,test3,2020.2.5,MacIntel,60
,,,,m,0.9175,0,43,43,43,1,paints/images/269.jpg,paints/images/293.jpg,44,ningtong,001,2020-11-19_14h44.26.137,test3,2020.2.5,MacIntel,60
,,,,m,0.77336,0,44,44,44,1,paints/images/199.jpg,paints/images/284.jpg,45,ningtong,001,2020-11-19_14h44.26.137,test3,2020.2.5,MacIntel,60
,,,,z,1.743645,0,45,45,45,1,paints/images/255.jpg,paints/images/281.jpg,46,ningtong,001,2020-11-19_14h44.26.137,test3,2020.2.5,MacIntel,60
,,,,m,0.844705,0,46,46,46,1,paints/images/382.jpg,paints/images/4.jpg,47,ningtong,001,2020-11-19_14h44.26.137,test3,2020.2.5,MacIntel,60
,,,,z,0.817865,0,47,47,47,1,paints/images/111.jpg,paints/images/83.jpg,48,ningtong,001,2020-11-19_14h44.26.137,test3,2020.2.5,MacIntel,60
,,,,z,0.81023,0,48,48,48,1,paints/images/239.jpg,paints/images/151.jpg,49,ningtong,001,2020-11-19_14h44.26.137,test3,2020.2.5,MacIntel,60
,,,,m,0.803425,0,49,49,49,1,paints/images/84.jpg,paints/images/341.jpg,50,ningtong,001,2020-11-19_14h44.26.137,test3,2020.2.5,MacIntel,60
,,,,m,1.301555,0,50,50,50,1,paints/images/317.jpg,paints/images/159.jpg,51,ningtong,001,2020-11-19_14h44.26.137,test3,2020.2.5,MacIntel,60
,,,,z,1.93456,0,51,51,51,1,paints/images/153.jpg,paints/images/212.jpg,52,ningtong,001,2020-11-19_14h44.26.137,test3,2020.2.5,MacIntel,60
,,,,m,1.178345,0,52,52,52,1,paints/images/5.jpg,paints/images/361.jpg,53,ningtong,001,2020-11-19_14h44.26.137,test3,2020.2.5,MacIntel,60
,,,,z,2.40072,0,53,53,53,1,paints/images/319.jpg,paints/images/178.jpg,54,ningtong,001,2020-11-19_14h44.26.137,test3,2020.2.5,MacIntel,60
,,,,m,1.284215,0,54,54,54,1,paints/images/118.jpg,paints/images/275.jpg,55,ningtong,001,2020-11-19_14h44.26.137,test3,2020.2.5,MacIntel,60
,,,,m,1.30205,0,55,55,55,1,paints/images/213.jpg,paints/images/312.jpg,56,ningtong,001,2020-11-19_14h44.26.137,test3,2020.2.5,MacIntel,60
,,,,z,0.702295,0,56,56,56,1,paints/images/4.jpg,paints/images/131.jpg,57,ningtong,001,2020-11-19_14h44.26.137,test3,2020.2.5,MacIntel,60
,,,,z,1.07761,0,57,57,57,1,paints/images/206.jpg,paints/images/391.jpg,58,ningtong,001,2020-11-19_14h44.26.137,test3,2020.2.5,MacIntel,60
,,,,z,0.740775,0,58,58,58,1,paints/images/349.jpg,paints/images/240.jpg,59,ningtong,001,2020-11-19_14h44.26.137,test3,2020.2.5,MacIntel,60
,,,,m,0.900965,0,59,59,59,1,paints/images/174.jpg,paints/images/197.jpg,60,ningtong,001,2020-11-19_14h44.26.137,test3,2020.2.5,MacIntel,60
,,,,z,1.267985,0,60,60,60,1,paints/images/93.jpg,paints/images/330.jpg,61,ningtong,001,2020-11-19_14h44.26.137,test3,2020.2.5,MacIntel,60
,,,,z,1.41446,0,61,61,61,1,paints/images/262.jpg,paints/images/225.jpg,62,ningtong,001,2020-11-19_14h44.26.137,test3,2020.2.5,MacIntel,60
,,,,m,1.951385,0,62,62,62,1,paints/images/322.jpg,paints/images/267.jpg,63,ningtong,001,2020-11-19_14h44.26.137,test3,2020.2.5,MacIntel,60
,,,,z,0.752985,0,63,63,63,1,paints/images/104.jpg,paints/images/140.jpg,64,ningtong,001,2020-11-19_14h44.26.137,test3,2020.2.5,MacIntel,60
,,,,m,0.90155,0,64,64,64,1,paints/images/400.jpg,paints/images/355.jpg,65,ningtong,001,2020-11-19_14h44.26.137,test3,2020.2.5,MacIntel,60
,,,,z,0.8553,0,65,65,65,1,paints/images/89.jpg,paints/images/380.jpg,66,ningtong,001,2020-11-19_14h44.26.137,test3,2020.2.5,MacIntel,60
,,,,z,1.184165,0,66,66,66,1,paints/images/181.jpg,paints/images/195.jpg,67,ningtong,001,2020-11-19_14h44.26.137,test3,2020.2.5,MacIntel,60
,,,,z,0.74549,0,67,67,67,1,paints/images/130.jpg,paints/images/155.jpg,68,ningtong,001,2020-11-19_14h44.26.137,test3,2020.2.5,MacIntel,60
,,,,m,1.419005,0,68,68,68,1,paints/images/15.jpg,paints/images/55.jpg,69,ningtong,001,2020-11-19_14h44.26.137,test3,2020.2.5,MacIntel,60
,,,,m,0.645565,0,69,69,69,1,paints/images/393.jpg,paints/images/34.jpg,70,ningtong,001,2020-11-19_14h44.26.137,test3,2020.2.5,MacIntel,60
,,,,m,12.93391,0,70,70,70,1,paints/images/192.jpg,paints/images/351.jpg,71,ningtong,001,2020-11-19_14h44.26.137,test3,2020.2.5,MacIntel,60
,,,,m,2.301815,0,71,71,71,1,paints/images/57.jpg,paints/images/363.jpg,72,ningtong,001,2020-11-19_14h44.26.137,test3,2020.2.5,MacIntel,60
,,,,z,0.818425,0,72,72,72,1,paints/images/243.jpg,paints/images/295.jpg,73,ningtong,001,2020-11-19_14h44.26.137,test3,2020.2.5,MacIntel,60
,,,,m,1.101365,0,73,73,73,1,paints/images/196.jpg,paints/images/146.jpg,74,ningtong,001,2020-11-19_14h44.26.137,test3,2020.2.5,MacIntel,60
,,,,z,0.819205,0,74,74,74,1,paints/images/367.jpg,paints/images/332.jpg,75,ningtong,001,2020-11-19_14h44.26.137,test3,2020.2.5,MacIntel,60
,,,,m,0.77432,0,75,75,75,1,paints/images/249.jpg,paints/images/50.jpg,76,ningtong,001,2020-11-19_14h44.26.137,test3,2020.2.5,MacIntel,60
,,,,m,0.74007,0,76,76,76,1,paints/images/100.jpg,paints/images/91.jpg,77,ningtong,001,2020-11-19_14h44.26.137,test3,2020.2.5,MacIntel,60
,,,,m,0.57249,0,77,77,77,1,paints/images/301.jpg,paints/images/154.jpg,78,ningtong,001,2020-11-19_14h44.26.137,test3,2020.2.5,MacIntel,60
,,,,m,0.808235,0,78,78,78,1,paints/images/13.jpg,paints/images/308.jpg,79,ningtong,001,2020-11-19_14h44.26.137,test3,2020.2.5,MacIntel,60
,,,,z,0.684175,0,79,79,79,1,paints/images/11.jpg,paints/images/24.jpg,80,ningtong,001,2020-11-19_14h44.26.137,test3,2020.2.5,MacIntel,60
,,,,z,0.622185,0,80,80,80,1,paints/images/27.jpg,paints/images/114.jpg,81,ningtong,001,2020-11-19_14h44.26.137,test3,2020.2.5,MacIntel,60
,,,,z,0.88554,0,81,81,81,1,paints/images/334.jpg,paints/images/217.jpg,82,ningtong,001,2020-11-19_14h44.26.137,test3,2020.2.5,MacIntel,60
,,,,m,0.81008,0,82,82,82,1,paints/images/340.jpg,paints/images/320.jpg,83,ningtong,001,2020-11-19_14h44.26.137,test3,2020.2.5,MacIntel,60
,,,,m,0.805945,0,83,83,83,1,paints/images/204.jpg,paints/images/52.jpg,84,ningtong,001,2020-11-19_14h44.26.137,test3,2020.2.5,MacIntel,60
,,,,m,0.90303,0,84,84,84,1,paints/images/266.jpg,paints/images/179.jpg,85,ningtong,001,2020-11-19_14h44.26.137,test3,2020.2.5,MacIntel,60
,,,,m,0.608155,0,85,85,85,1,paints/images/309.jpg,paints/images/45.jpg,86,ningtong,001,2020-11-19_14h44.26.137,test3,2020.2.5,MacIntel,60
,,,,z,1.04103,0,86,86,86,1,paints/images/48.jpg,paints/images/352.jpg,87,ningtong,001,2020-11-19_14h44.26.137,test3,2020.2.5,MacIntel,60
,,,,z,0.80165,0,87,87,87,1,paints/images/238.jpg,paints/images/190.jpg,88,ningtong,001,2020-11-19_14h44.26.137,test3,2020.2.5,MacIntel,60
,,,,m,0.765385,0,88,88,88,1,paints/images/216.jpg,paints/images/207.jpg,89,ningtong,001,2020-11-19_14h44.26.137,test3,2020.2.5,MacIntel,60
,,,,z,0.900115,0,89,89,89,1,paints/images/228.jpg,paints/images/315.jpg,90,ningtong,001,2020-11-19_14h44.26.137,test3,2020.2.5,MacIntel,60
,,,,m,0.9103,0,90,90,90,1,paints/images/368.jpg,paints/images/221.jpg,91,ningtong,001,2020-11-19_14h44.26.137,test3,2020.2.5,MacIntel,60
,,,,z,0.702035,0,91,91,91,1,paints/images/402.jpg,paints/images/257.jpg,92,ningtong,001,2020-11-19_14h44.26.137,test3,2020.2.5,MacIntel,60
,,,,z,0.845275,0,92,92,92,1,paints/images/248.jpg,paints/images/296.jpg,93,ningtong,001,2020-11-19_14h44.26.137,test3,2020.2.5,MacIntel,60
,,,,z,0.609605,0,93,93,93,1,paints/images/234.jpg,paints/images/174.jpg,94,ningtong,001,2020-11-19_14h44.26.137,test3,2020.2.5,MacIntel,60
,,,,m,0.9513,0,94,94,94,1,paints/images/149.jpg,paints/images/204.jpg,95,ningtong,001,2020-11-19_14h44.26.137,test3,2020.2.5,MacIntel,60
,,,,m,0.72306,0,95,95,95,1,paints/images/56.jpg,paints/images/117.jpg,96,ningtong,001,2020-11-19_14h44.26.137,test3,2020.2.5,MacIntel,60
,,,,m,1.44226,0,96,96,96,1,paints/images/146.jpg,paints/images/287.jpg,97,ningtong,001,2020-11-19_14h44.26.137,test3,2020.2.5,MacIntel,60
,,,,z,0.868435,0,97,97,97,1,paints/images/221.jpg,paints/images/62.jpg,98,ningtong,001,2020-11-19_14h44.26.137,test3,2020.2.5,MacIntel,60
,,,,m,0.873595,0,98,98,98,1,paints/images/110.jpg,paints/images/321.jpg,99,ningtong,001,2020-11-19_14h44.26.137,test3,2020.2.5,MacIntel,60
,,,,z,1.749535,0,99,99,99,1,paints/images/67.jpg,paints/images/384.jpg,100,ningtong,001,2020-11-19_14h44.26.137,test3,2020.2.5,MacIntel,60
,,,,z,1.21295,0,100,100,100,1,paints/images/356.jpg,paints/images/137.jpg,101,ningtong,001,2020-11-19_14h44.26.137,test3,2020.2.5,MacIntel,60
,,,,m,1.001795,0,101,101,101,1,paints/images/274.jpg,paints/images/232.jpg,102,ningtong,001,2020-11-19_14h44.26.137,test3,2020.2.5,MacIntel,60
,,,,z,1.96239,0,102,102,102,1,paints/images/70.jpg,paints/images/183.jpg,103,ningtong,001,2020-11-19_14h44.26.137,test3,2020.2.5,MacIntel,60
,,,,m,1.256735,0,103,103,103,1,paints/images/10.jpg,paints/images/393.jpg,104,ningtong,001,2020-11-19_14h44.26.137,test3,2020.2.5,MacIntel,60
,,,,z,0.871345,0,104,104,104,1,paints/images/378.jpg,paints/images/181.jpg,105,ningtong,001,2020-11-19_14h44.26.137,test3,2020.2.5,MacIntel,60
,,,,z,1.435015,0,105,105,105,1,paints/images/303.jpg,paints/images/334.jpg,106,ningtong,001,2020-11-19_14h44.26.137,test3,2020.2.5,MacIntel,60
,,,,z,1.73429,0,106,106,106,1,paints/images/328.jpg,paints/images/344.jpg,107,ningtong,001,2020-11-19_14h44.26.137,test3,2020.2.5,MacIntel,60
,,,,m,4.40191,0,107,107,107,1,paints/images/397.jpg,paints/images/318.jpg,108,ningtong,001,2020-11-19_14h44.26.137,test3,2020.2.5,MacIntel,60
,,,,z,1.09362,0,108,108,108,1,paints/images/365.jpg,paints/images/211.jpg,109,ningtong,001,2020-11-19_14h44.26.137,test3,2020.2.5,MacIntel,60
,,,,m,2.17542,0,109,109,109,1,paints/images/23.jpg,paints/images/46.jpg,110,ningtong,001,2020-11-19_14h44.26.137,test3,2020.2.5,MacIntel,60
,,,,z,1.07847,0,110,110,110,1,paints/images/304.jpg,paints/images/11.jpg,111,ningtong,001,2020-11-19_14h44.26.137,test3,2020.2.5,MacIntel,60
,,,,z,1.05117,0,111,111,111,1,paints/images/226.jpg,paints/images/6.jpg,112,ningtong,001,2020-11-19_14h44.26.137,test3,2020.2.5,MacIntel,60
,,,,z,1.0839,0,112,112,112,1,paints/images/170.jpg,paints/images/262.jpg,113,ningtong,001,2020-11-19_14h44.26.137,test3,2020.2.5,MacIntel,60
,,,,z,0.63437,0,113,113,113,1,paints/images/259.jpg,paints/images/343.jpg,114,ningtong,001,2020-11-19_14h44.26.137,test3,2020.2.5,MacIntel,60
,,,,z,0.850975,0,114,114,114,1,paints/images/19.jpg,paints/images/394.jpg,115,ningtong,001,2020-11-19_14h44.26.137,test3,2020.2.5,MacIntel,60
,,,,m,0.884845,0,115,115,115,1,paints/images/215.jpg,paints/images/19.jpg,116,ningtong,001,2020-11-19_14h44.26.137,test3,2020.2.5,MacIntel,60
,,,,z,0.868615,0,116,116,116,1,paints/images/52.jpg,paints/images/360.jpg,117,ningtong,001,2020-11-19_14h44.26.137,test3,2020.2.5,MacIntel,60
,,,,m,1.0777,0,117,117,117,1,paints/images/99.jpg,paints/images/328.jpg,118,ningtong,001,2020-11-19_14h44.26.137,test3,2020.2.5,MacIntel,60
,,,,m,1.20168,0,118,118,118,1,paints/images/150.jpg,paints/images/164.jpg,119,ningtong,001,2020-11-19_14h44.26.137,test3,2020.2.5,MacIntel,60
,,,,m,0.934585,0,119,119,119,1,paints/images/172.jpg,paints/images/213.jpg,120,ningtong,001,2020-11-19_14h44.26.137,test3,2020.2.5,MacIntel,60
,,,,m,0.940965,0,120,120,120,1,paints/images/50.jpg,paints/images/101.jpg,121,ningtong,001,2020-11-19_14h44.26.137,test3,2020.2.5,MacIntel,60
,,,,m,1.03433,0,121,121,121,1,paints/images/358.jpg,paints/images/354.jpg,122,ningtong,001,2020-11-19_14h44.26.137,test3,2020.2.5,MacIntel,60
,,,,z,1.1033,0,122,122,122,1,paints/images/257.jpg,paints/images/265.jpg,123,ningtong,001,2020-11-19_14h44.26.137,test3,2020.2.5,MacIntel,60
,,,,z,1.15177,0,123,123,123,1,paints/images/91.jpg,paints/images/342.jpg,124,ningtong,001,2020-11-19_14h44.26.137,test3,2020.2.5,MacIntel,60
,,,,z,0.953485,0,124,124,124,1,paints/images/168.jpg,paints/images/132.jpg,125,ningtong,001,2020-11-19_14h44.26.137,test3,2020.2.5,MacIntel,60
,,,,z,1.16456,0,125,125,125,1,paints/images/280.jpg,paints/images/98.jpg,126,ningtong,001,2020-11-19_14h44.26.137,test3,2020.2.5,MacIntel,60
,,,,z,0.65076,0,126,126,126,1,paints/images/261.jpg,paints/images/40.jpg,127,ningtong,001,2020-11-19_14h44.26.137,test3,2020.2.5,MacIntel,60
,,,,z,1.07916,0,127,127,127,1,paints/images/333.jpg,paints/images/66.jpg,128,ningtong,001,2020-11-19_14h44.26.137,test3,2020.2.5,MacIntel,60
,,,,z,3.067785,0,128,128,128,1,paints/images/96.jpg,paints/images/82.jpg,129,ningtong,001,2020-11-19_14h44.26.137,test3,2020.2.5,MacIntel,60
,,,,m,1.88588,0,129,129,129,1,paints/images/32.jpg,paints/images/325.jpg,130,ningtong,001,2020-11-19_14h44.26.137,test3,2020.2.5,MacIntel,60
,,,,m,0.77459,0,130,130,130,1,paints/images/268.jpg,paints/images/167.jpg,131,ningtong,001,2020-11-19_14h44.26.137,test3,2020.2.5,MacIntel,60
,,,,z,1.265855,0,131,131,131,1,paints/images/162.jpg,paints/images/25.jpg,132,ningtong,001,2020-11-19_14h44.26.137,test3,2020.2.5,MacIntel,60
,,,,z,0.749975,0,132,132,132,1,paints/images/53.jpg,paints/images/305.jpg,133,ningtong,001,2020-11-19_14h44.26.137,test3,2020.2.5,MacIntel,60
,,,,z,0.75528,0,133,133,133,1,paints/images/263.jpg,paints/images/209.jpg,134,ningtong,001,2020-11-19_14h44.26.137,test3,2020.2.5,MacIntel,60
,,,,z,0.960915,0,134,134,134,1,paints/images/92.jpg,paints/images/364.jpg,135,ningtong,001,2020-11-19_14h44.26.137,test3,2020.2.5,MacIntel,60
,,,,m,0.85044,0,135,135,135,1,paints/images/61.jpg,paints/images/291.jpg,136,ningtong,001,2020-11-19_14h44.26.137,test3,2020.2.5,MacIntel,60
,,,,z,0.801325,0,136,136,136,1,paints/images/293.jpg,paints/images/283.jpg,137,ningtong,001,2020-11-19_14h44.26.137,test3,2020.2.5,MacIntel,60
,,,,z,1.1248,0,137,137,137,1,paints/images/229.jpg,paints/images/173.jpg,138,ningtong,001,2020-11-19_14h44.26.137,test3,2020.2.5,MacIntel,60
,,,,m,0.801945,0,138,138,138,1,paints/images/41.jpg,paints/images/133.jpg,139,ningtong,001,2020-11-19_14h44.26.137,test3,2020.2.5,MacIntel,60
,,,,m,1.24037,0,139,139,139,1,paints/images/182.jpg,paints/images/348.jpg,140,ningtong,001,2020-11-19_14h44.26.137,test3,2020.2.5,MacIntel,60
,,,,m,1.357345,0,140,140,140,1,paints/images/379.jpg,paints/images/228.jpg,141,ningtong,001,2020-11-19_14h44.26.137,test3,2020.2.5,MacIntel,60
,,,,m,1.101505,0,141,141,141,1,paints/images/188.jpg,paints/images/13.jpg,142,ningtong,001,2020-11-19_14h44.26.137,test3,2020.2.5,MacIntel,60
,,,,m,1.133385,0,142,142,142,1,paints/images/40.jpg,paints/images/329.jpg,143,ningtong,001,2020-11-19_14h44.26.137,test3,2020.2.5,MacIntel,60
,,,,z,0.86867,0,143,143,143,1,paints/images/323.jpg,paints/images/165.jpg,144,ningtong,001,2020-11-19_14h44.26.137,test3,2020.2.5,MacIntel,60
,,,,z,0.80145,0,144,144,144,1,paints/images/78.jpg,paints/images/407.jpg,145,ningtong,001,2020-11-19_14h44.26.137,test3,2020.2.5,MacIntel,60
,,,,z,0.684425,0,145,145,145,1,paints/images/242.jpg,paints/images/75.jpg,146,ningtong,001,2020-11-19_14h44.26.137,test3,2020.2.5,MacIntel,60
,,,,m,0.6795,0,146,146,146,1,paints/images/62.jpg,paints/images/187.jpg,147,ningtong,001,2020-11-19_14h44.26.137,test3,2020.2.5,MacIntel,60
,,,,z,0.77433,0,147,147,147,1,paints/images/131.jpg,paints/images/285.jpg,148,ningtong,001,2020-11-19_14h44.26.137,test3,2020.2.5,MacIntel,60
,,,,m,0.718295,0,148,148,148,1,paints/images/241.jpg,paints/images/97.jpg,149,ningtong,001,2020-11-19_14h44.26.137,test3,2020.2.5,MacIntel,60
,,,,z,0.674805,0,149,149,149,1,paints/images/132.jpg,paints/images/289.jpg,150,ningtong,001,2020-11-19_14h44.26.137,test3,2020.2.5,MacIntel,60
,,,,m,0.751295,0,150,150,150,1,paints/images/185.jpg,paints/images/54.jpg,151,ningtong,001,2020-11-19_14h44.26.137,test3,2020.2.5,MacIntel,60
,,,,m,0.70782,0,151,151,151,1,paints/images/272.jpg,paints/images/51.jpg,152,ningtong,001,2020-11-19_14h44.26.137,test3,2020.2.5,MacIntel,60
,,,,z,0.711965,0,152,152,152,1,paints/images/403.jpg,paints/images/71.jpg,153,ningtong,001,2020-11-19_14h44.26.137,test3,2020.2.5,MacIntel,60
,,,,m,0.701645,0,153,153,153,1,paints/images/202.jpg,paints/images/219.jpg,154,ningtong,001,2020-11-19_14h44.26.137,test3,2020.2.5,MacIntel,60
,,,,z,0.74295,0,154,154,154,1,paints/images/34.jpg,paints/images/271.jpg,155,ningtong,001,2020-11-19_14h44.26.137,test3,2020.2.5,MacIntel,60
,,,,m,0.73441,0,155,155,155,1,paints/images/296.jpg,paints/images/90.jpg,156,ningtong,001,2020-11-19_14h44.26.137,test3,2020.2.5,MacIntel,60
,,,,z,0.74114,0,156,156,156,1,paints/images/25.jpg,paints/images/338.jpg,157,ningtong,001,2020-11-19_14h44.26.137,test3,2020.2.5,MacIntel,60
,,,,m,0.67046,0,157,157,157,1,paints/images/396.jpg,paints/images/78.jpg,158,ningtong,001,2020-11-19_14h44.26.137,test3,2020.2.5,MacIntel,60
,,,,z,0.795815,0,158,158,158,1,paints/images/72.jpg,paints/images/111.jpg,159,ningtong,001,2020-11-19_14h44.26.137,test3,2020.2.5,MacIntel,60
,,,,z,0.70109,0,159,159,159,1,paints/images/164.jpg,paints/images/16.jpg,160,ningtong,001,2020-11-19_14h44.26.137,test3,2020.2.5,MacIntel,60
,,,,z,0.73449,0,160,160,160,1,paints/images/387.jpg,paints/images/244.jpg,161,ningtong,001,2020-11-19_14h44.26.137,test3,2020.2.5,MacIntel,60
,,,,z,1.60501,0,161,161,161,1,paints/images/64.jpg,paints/images/260.jpg,162,ningtong,001,2020-11-19_14h44.26.137,test3,2020.2.5,MacIntel,60
,,,,m,0.835355,0,162,162,162,1,paints/images/160.jpg,paints/images/63.jpg,163,ningtong,001,2020-11-19_14h44.26.137,test3,2020.2.5,MacIntel,60
,,,,z,1.170765,0,163,163,163,1,paints/images/3.jpg,paints/images/282.jpg,164,ningtong,001,2020-11-19_14h44.26.137,test3,2020.2.5,MacIntel,60
,,,,m,0.934955,0,164,164,164,1,paints/images/307.jpg,paints/images/152.jpg,165,ningtong,001,2020-11-19_14h44.26.137,test3,2020.2.5,MacIntel,60
,,,,z,0.712755,0,165,165,165,1,paints/images/311.jpg,paints/images/123.jpg,166,ningtong,001,2020-11-19_14h44.26.137,test3,2020.2.5,MacIntel,60
,,,,m,1.19746,0,166,166,166,1,paints/images/143.jpg,paints/images/286.jpg,167,ningtong,001,2020-11-19_14h44.26.137,test3,2020.2.5,MacIntel,60
,,,,z,2.274735,0,167,167,167,1,paints/images/97.jpg,paints/images/216.jpg,168,ningtong,001,2020-11-19_14h44.26.137,test3,2020.2.5,MacIntel,60
,,,,m,1.134195,0,168,168,168,1,paints/images/395.jpg,paints/images/170.jpg,169,ningtong,001,2020-11-19_14h44.26.137,test3,2020.2.5,MacIntel,60
,,,,m,1.05118,0,169,169,169,1,paints/images/151.jpg,paints/images/26.jpg,170,ningtong,001,2020-11-19_14h44.26.137,test3,2020.2.5,MacIntel,60
,,,,z,0.867785,0,170,170,170,1,paints/images/51.jpg,paints/images/32.jpg,171,ningtong,001,2020-11-19_14h44.26.137,test3,2020.2.5,MacIntel,60
,,,,z,0.7497,0,171,171,171,1,paints/images/305.jpg,paints/images/176.jpg,172,ningtong,001,2020-11-19_14h44.26.137,test3,2020.2.5,MacIntel,60
,,,,z,0.640945,0,172,172,172,1,paints/images/137.jpg,paints/images/48.jpg,173,ningtong,001,2020-11-19_14h44.26.137,test3,2020.2.5,MacIntel,60
,,,,z,1.8761,0,173,173,173,1,paints/images/65.jpg,paints/images/243.jpg,174,ningtong,001,2020-11-19_14h44.26.137,test3,2020.2.5,MacIntel,60
,,,,z,1.968805,0,174,174,174,1,paints/images/115.jpg,paints/images/210.jpg,175,ningtong,001,2020-11-19_14h44.26.137,test3,2020.2.5,MacIntel,60
,,,,m,0.784995,0,175,175,175,1,paints/images/310.jpg,paints/images/58.jpg,176,ningtong,001,2020-11-19_14h44.26.137,test3,2020.2.5,MacIntel,60
,,,,m,1.247165,0,176,176,176,1,paints/images/1.jpg,paints/images/112.jpg,177,ningtong,001,2020-11-19_14h44.26.137,test3,2020.2.5,MacIntel,60
,,,,m,0.76812,0,177,177,177,1,paints/images/125.jpg,paints/images/17.jpg,178,ningtong,001,2020-11-19_14h44.26.137,test3,2020.2.5,MacIntel,60
,,,,m,2.08314,0,178,178,178,1,paints/images/279.jpg,paints/images/166.jpg,179,ningtong,001,2020-11-19_14h44.26.137,test3,2020.2.5,MacIntel,60
,,,,m,0.75788,0,179,179,179,1,paints/images/316.jpg,paints/images/306.jpg,180,ningtong,001,2020-11-19_14h44.26.137,test3,2020.2.5,MacIntel,60
,,,,m,1.301735,0,180,180,180,1,paints/images/22.jpg,paints/images/214.jpg,181,ningtong,001,2020-11-19_14h44.26.137,test3,2020.2.5,MacIntel,60
,,,,z,0.851095,0,181,181,181,1,paints/images/54.jpg,paints/images/235.jpg,182,ningtong,001,2020-11-19_14h44.26.137,test3,2020.2.5,MacIntel,60
,,,,z,1.50219,0,182,182,182,1,paints/images/225.jpg,paints/images/160.jpg,183,ningtong,001,2020-11-19_14h44.26.137,test3,2020.2.5,MacIntel,60
,,,,z,1.278975,0,183,183,183,1,paints/images/339.jpg,paints/images/59.jpg,184,ningtong,001,2020-11-19_14h44.26.137,test3,2020.2.5,MacIntel,60
,,,,z,0.84679,0,184,184,184,1,paints/images/409.jpg,paints/images/180.jpg,185,ningtong,001,2020-11-19_14h44.26.137,test3,2020.2.5,MacIntel,60
,,,,m,1.168405,0,185,185,185,1,paints/images/145.jpg,paints/images/115.jpg,186,ningtong,001,2020-11-19_14h44.26.137,test3,2020.2.5,MacIntel,60
,,,,z,1.03464,0,186,186,186,1,paints/images/147.jpg,paints/images/37.jpg,187,ningtong,001,2020-11-19_14h44.26.137,test3,2020.2.5,MacIntel,60
,,,,m,1.117765,0,187,187,187,1,paints/images/288.jpg,paints/images/64.jpg,188,ningtong,001,2020-11-19_14h44.26.137,test3,2020.2.5,MacIntel,60
,,,,m,0.824635,0,188,188,188,1,paints/images/235.jpg,paints/images/201.jpg,189,ningtong,001,2020-11-19_14h44.26.137,test3,2020.2.5,MacIntel,60
,,,,m,1.2339,0,189,189,189,1,paints/images/313.jpg,paints/images/2.jpg,190,ningtong,001,2020-11-19_14h44.26.137,test3,2020.2.5,MacIntel,60
,,,,z,0.96953,0,190,190,190,1,paints/images/329.jpg,paints/images/38.jpg,191,ningtong,001,2020-11-19_14h44.26.137,test3,2020.2.5,MacIntel,60
,,,,m,0.750605,0,191,191,191,1,paints/images/9.jpg,paints/images/241.jpg,192,ningtong,001,2020-11-19_14h44.26.137,test3,2020.2.5,MacIntel,60
,,,,m,1.290415,0,192,192,192,1,paints/images/364.jpg,paints/images/44.jpg,193,ningtong,001,2020-11-19_14h44.26.137,test3,2020.2.5,MacIntel,60
,,,,m,1.50209,0,193,193,193,1,paints/images/14.jpg,paints/images/109.jpg,194,ningtong,001,2020-11-19_14h44.26.137,test3,2020.2.5,MacIntel,60
,,,,m,0.85201,0,194,194,194,1,paints/images/0.jpg,paints/images/14.jpg,195,ningtong,001,2020-11-19_14h44.26.137,test3,2020.2.5,MacIntel,60
,,,,m,0.700955,0,195,195,195,1,paints/images/398.jpg,paints/images/247.jpg,196,ningtong,001,2020-11-19_14h44.26.137,test3,2020.2.5,MacIntel,60
,,,,m,0.701255,0,196,196,196,1,paints/images/377.jpg,paints/images/237.jpg,197,ningtong,001,2020-11-19_14h44.26.137,test3,2020.2.5,MacIntel,60
,,,,z,0.844265,0,197,197,197,1,paints/images/246.jpg,paints/images/184.jpg,198,ningtong,001,2020-11-19_14h44.26.137,test3,2020.2.5,MacIntel,60
,,,,z,0.71824,0,198,198,198,1,paints/images/299.jpg,paints/images/301.jpg,199,ningtong,001,2020-11-19_14h44.26.137,test3,2020.2.5,MacIntel,60
,,,,m,0.724545,0,199,199,199,1,paints/images/116.jpg,paints/images/148.jpg,200,ningtong,001,2020-11-19_14h44.26.137,test3,2020.2.5,MacIntel,60
,,,,z,0.709195,0,200,200,200,1,paints/images/267.jpg,paints/images/336.jpg,201,ningtong,001,2020-11-19_14h44.26.137,test3,2020.2.5,MacIntel,60
,,,,z,0.57237,0,201,201,201,1,paints/images/6.jpg,paints/images/182.jpg,202,ningtong,001,2020-11-19_14h44.26.137,test3,2020.2.5,MacIntel,60
,,,,m,0.84337,0,202,202,202,1,paints/images/348.jpg,paints/images/105.jpg,203,ningtong,001,2020-11-19_14h44.26.137,test3,2020.2.5,MacIntel,60
,,,,z,0.67825,0,203,203,203,1,paints/images/404.jpg,paints/images/372.jpg,204,ningtong,001,2020-11-19_14h44.26.137,test3,2020.2.5,MacIntel,60
,,,,m,0.78163,0,204,204,204,1,paints/images/324.jpg,paints/images/134.jpg,205,ningtong,001,2020-11-19_14h44.26.137,test3,2020.2.5,MacIntel,60
,,,,m,0.835135,0,205,205,205,1,paints/images/278.jpg,paints/images/269.jpg,206,ningtong,001,2020-11-19_14h44.26.137,test3,2020.2.5,MacIntel,60
,,,,z,1.00035,0,206,206,206,1,paints/images/237.jpg,paints/images/375.jpg,207,ningtong,001,2020-11-19_14h44.26.137,test3,2020.2.5,MacIntel,60
,,,,m,1.53533,0,207,207,207,1,paints/images/109.jpg,paints/images/224.jpg,208,ningtong,001,2020-11-19_14h44.26.137,test3,2020.2.5,MacIntel,60
,,,,m,1.28086,0,208,208,208,1,paints/images/318.jpg,paints/images/127.jpg,209,ningtong,001,2020-11-19_14h44.26.137,test3,2020.2.5,MacIntel,60
,,,,z,0.86749,0,209,209,209,1,paints/images/120.jpg,paints/images/254.jpg,210,ningtong,001,2020-11-19_14h44.26.137,test3,2020.2.5,MacIntel,60
,,,,m,0.95142,0,210,210,210,1,paints/images/86.jpg,paints/images/67.jpg,211,ningtong,001,2020-11-19_14h44.26.137,test3,2020.2.5,MacIntel,60
,,,,m,0.819335,0,211,211,211,1,paints/images/302.jpg,paints/images/245.jpg,212,ningtong,001,2020-11-19_14h44.26.137,test3,2020.2.5,MacIntel,60
,,,,z,0.7936,0,212,212,212,1,paints/images/94.jpg,paints/images/242.jpg,213,ningtong,001,2020-11-19_14h44.26.137,test3,2020.2.5,MacIntel,60
,,,,z,1.314525,0,213,213,213,1,paints/images/295.jpg,paints/images/72.jpg,214,ningtong,001,2020-11-19_14h44.26.137,test3,2020.2.5,MacIntel,60
,,,,z,1.600785,0,214,214,214,1,paints/images/227.jpg,paints/images/175.jpg,215,ningtong,001,2020-11-19_14h44.26.137,test3,2020.2.5,MacIntel,60
,,,,z,1.102035,0,215,215,215,1,paints/images/26.jpg,paints/images/203.jpg,216,ningtong,001,2020-11-19_14h44.26.137,test3,2020.2.5,MacIntel,60
,,,,z,0.901235,0,216,216,216,1,paints/images/45.jpg,paints/images/272.jpg,217,ningtong,001,2020-11-19_14h44.26.137,test3,2020.2.5,MacIntel,60
,,,,z,0.934825,0,217,217,217,1,paints/images/410.jpg,paints/images/185.jpg,218,ningtong,001,2020-11-19_14h44.26.137,test3,2020.2.5,MacIntel,60
,,,,m,4.618215,0,218,218,218,1,paints/images/380.jpg,paints/images/0.jpg,219,ningtong,001,2020-11-19_14h44.26.137,test3,2020.2.5,MacIntel,60
,,,,m,1.07213,0,219,219,219,1,paints/images/370.jpg,paints/images/106.jpg,220,ningtong,001,2020-11-19_14h44.26.137,test3,2020.2.5,MacIntel,60
,,,,z,0.77835,0,220,220,220,1,paints/images/102.jpg,paints/images/309.jpg,221,ningtong,001,2020-11-19_14h44.26.137,test3,2020.2.5,MacIntel,60
,,,,z,0.80117,0,221,221,221,1,paints/images/167.jpg,paints/images/299.jpg,222,ningtong,001,2020-11-19_14h44.26.137,test3,2020.2.5,MacIntel,60
,,,,m,1.03949,0,222,222,222,1,paints/images/290.jpg,paints/images/192.jpg,223,ningtong,001,2020-11-19_14h44.26.137,test3,2020.2.5,MacIntel,60
,,,,m,1.00077,0,223,223,223,1,paints/images/82.jpg,paints/images/353.jpg,224,ningtong,001,2020-11-19_14h44.26.137,test3,2020.2.5,MacIntel,60
,,,,m,0.858285,0,224,224,224,1,paints/images/75.jpg,paints/images/404.jpg,225,ningtong,001,2020-11-19_14h44.26.137,test3,2020.2.5,MacIntel,60
,,,,m,1.92704,0,225,225,225,1,paints/images/117.jpg,paints/images/100.jpg,226,ningtong,001,2020-11-19_14h44.26.137,test3,2020.2.5,MacIntel,60
,,,,m,1.11542,0,226,226,226,1,paints/images/200.jpg,paints/images/378.jpg,227,ningtong,001,2020-11-19_14h44.26.137,test3,2020.2.5,MacIntel,60
,,,,z,1.218935,0,227,227,227,1,paints/images/371.jpg,paints/images/57.jpg,228,ningtong,001,2020-11-19_14h44.26.137,test3,2020.2.5,MacIntel,60
,,,,z,0.702195,0,228,228,228,1,paints/images/87.jpg,paints/images/302.jpg,229,ningtong,001,2020-11-19_14h44.26.137,test3,2020.2.5,MacIntel,60
,,,,z,0.79941,0,229,229,229,1,paints/images/208.jpg,paints/images/39.jpg,230,ningtong,001,2020-11-19_14h44.26.137,test3,2020.2.5,MacIntel,60
,,,,z,0.89177,0,230,230,230,1,paints/images/198.jpg,paints/images/200.jpg,231,ningtong,001,2020-11-19_14h44.26.137,test3,2020.2.5,MacIntel,60
,,,,m,0.00084,0,231,231,231,1,paints/images/43.jpg,paints/images/42.jpg,232,ningtong,001,2020-11-19_14h44.26.137,test3,2020.2.5,MacIntel,60
,,,,z,1.065305,0,232,232,232,1,paints/images/286.jpg,paints/images/376.jpg,233,ningtong,001,2020-11-19_14h44.26.137,test3,2020.2.5,MacIntel,60
,,,,z,1.400035,0,233,233,233,1,paints/images/275.jpg,paints/images/76.jpg,234,ningtong,001,2020-11-19_14h44.26.137,test3,2020.2.5,MacIntel,60
,,,,m,1.11229,0,234,234,234,1,paints/images/138.jpg,paints/images/129.jpg,235,ningtong,001,2020-11-19_14h44.26.137,test3,2020.2.5,MacIntel,60
,,,,z,5.95122,0,235,235,235,1,paints/images/386.jpg,paints/images/366.jpg,236,ningtong,001,2020-11-19_14h44.26.137,test3,2020.2.5,MacIntel,60
,,,,m,1.168355,0,236,236,236,1,paints/images/232.jpg,paints/images/215.jpg,237,ningtong,001,2020-11-19_14h44.26.137,test3,2020.2.5,MacIntel,60
,,,,m,0.734345,0,237,237,237,1,paints/images/122.jpg,paints/images/199.jpg,238,ningtong,001,2020-11-19_14h44.26.137,test3,2020.2.5,MacIntel,60
,,,,z,0.70948,0,238,238,238,1,paints/images/388.jpg,paints/images/169.jpg,239,ningtong,001,2020-11-19_14h44.26.137,test3,2020.2.5,MacIntel,60
,,,,m,0.74181,0,239,239,239,1,paints/images/399.jpg,paints/images/229.jpg,240,ningtong,001,2020-11-19_14h44.26.137,test3,2020.2.5,MacIntel,60
,,,,m,0.66785,0,240,240,240,1,paints/images/300.jpg,paints/images/1.jpg,241,ningtong,001,2020-11-19_14h44.26.137,test3,2020.2.5,MacIntel,60
,,,,z,0.66971,0,241,241,241,1,paints/images/195.jpg,paints/images/399.jpg,242,ningtong,001,2020-11-19_14h44.26.137,test3,2020.2.5,MacIntel,60
,,,,m,0.778955,0,242,242,242,1,paints/images/281.jpg,paints/images/277.jpg,243,ningtong,001,2020-11-19_14h44.26.137,test3,2020.2.5,MacIntel,60
,,,,z,0.724055,0,243,243,243,1,paints/images/103.jpg,paints/images/288.jpg,244,ningtong,001,2020-11-19_14h44.26.137,test3,2020.2.5,MacIntel,60
,,,,z,0.71443,0,244,244,244,1,paints/images/297.jpg,paints/images/222.jpg,245,ningtong,001,2020-11-19_14h44.26.137,test3,2020.2.5,MacIntel,60
,,,,z,0.759785,0,245,245,245,1,paints/images/394.jpg,paints/images/258.jpg,246,ningtong,001,2020-11-19_14h44.26.137,test3,2020.2.5,MacIntel,60
,,,,z,0.772345,0,246,246,246,1,paints/images/73.jpg,paints/images/49.jpg,247,ningtong,001,2020-11-19_14h44.26.137,test3,2020.2.5,MacIntel,60
,,,,z,0.68538,0,247,247,247,1,paints/images/112.jpg,paints/images/80.jpg,248,ningtong,001,2020-11-19_14h44.26.137,test3,2020.2.5,MacIntel,60
,,,,z,0.84818,0,248,248,248,1,paints/images/245.jpg,paints/images/358.jpg,249,ningtong,001,2020-11-19_14h44.26.137,test3,2020.2.5,MacIntel,60
,,,,z,0.902695,0,249,249,249,1,paints/images/347.jpg,paints/images/143.jpg,250,ningtong,001,2020-11-19_14h44.26.137,test3,2020.2.5,MacIntel,60
,,,,m,0.967855,0,250,250,250,1,paints/images/352.jpg,paints/images/145.jpg,251,ningtong,001,2020-11-19_14h44.26.137,test3,2020.2.5,MacIntel,60
,,,,m,1.16835,0,251,251,251,1,paints/images/69.jpg,paints/images/162.jpg,252,ningtong,001,2020-11-19_14h44.26.137,test3,2020.2.5,MacIntel,60
,,,,z,0.667305,0,252,252,252,1,paints/images/381.jpg,paints/images/202.jpg,253,ningtong,001,2020-11-19_14h44.26.137,test3,2020.2.5,MacIntel,60
,,,,z,0.801805,0,253,253,253,1,paints/images/361.jpg,paints/images/340.jpg,254,ningtong,001,2020-11-19_14h44.26.137,test3,2020.2.5,MacIntel,60
,,,,m,0.668705,0,254,254,254,1,paints/images/217.jpg,paints/images/9.jpg,255,ningtong,001,2020-11-19_14h44.26.137,test3,2020.2.5,MacIntel,60
,,,,m,0.807015,0,255,255,255,1,paints/images/8.jpg,paints/images/409.jpg,256,ningtong,001,2020-11-19_14h44.26.137,test3,2020.2.5,MacIntel,60
,,,,z,0.90148,0,256,256,256,1,paints/images/59.jpg,paints/images/33.jpg,257,ningtong,001,2020-11-19_14h44.26.137,test3,2020.2.5,MacIntel,60
,,,,m,0.955095,0,257,257,257,1,paints/images/21.jpg,paints/images/311.jpg,258,ningtong,001,2020-11-19_14h44.26.137,test3,2020.2.5,MacIntel,60
,,,,z,0.75131,0,258,258,258,1,paints/images/408.jpg,paints/images/31.jpg,259,ningtong,001,2020-11-19_14h44.26.137,test3,2020.2.5,MacIntel,60
,,,,z,1.555245,0,259,259,259,1,paints/images/98.jpg,paints/images/3.jpg,260,ningtong,001,2020-11-19_14h44.26.137,test3,2020.2.5,MacIntel,60
,,,,z,1.43589,0,260,260,260,1,paints/images/336.jpg,paints/images/138.jpg,261,ningtong,001,2020-11-19_14h44.26.137,test3,2020.2.5,MacIntel,60
,,,,z,0.884875,0,261,261,261,1,paints/images/186.jpg,paints/images/395.jpg,262,ningtong,001,2020-11-19_14h44.26.137,test3,2020.2.5,MacIntel,60
,,,,m,0.7415,0,262,262,262,1,paints/images/76.jpg,paints/images/405.jpg,263,ningtong,001,2020-11-19_14h44.26.137,test3,2020.2.5,MacIntel,60
,,,,m,2.084305,0,263,263,263,1,paints/images/171.jpg,paints/images/381.jpg,264,ningtong,001,2020-11-19_14h44.26.137,test3,2020.2.5,MacIntel,60
,,,,m,0.719805,0,264,264,264,1,paints/images/220.jpg,paints/images/70.jpg,265,ningtong,001,2020-11-19_14h44.26.137,test3,2020.2.5,MacIntel,60
,,,,z,0.666285,0,265,265,265,1,paints/images/337.jpg,paints/images/339.jpg,266,ningtong,001,2020-11-19_14h44.26.137,test3,2020.2.5,MacIntel,60
,,,,m,0.75499,0,266,266,266,1,paints/images/258.jpg,paints/images/85.jpg,267,ningtong,001,2020-11-19_14h44.26.137,test3,2020.2.5,MacIntel,60
,,,,m,0.78451,0,267,267,267,1,paints/images/273.jpg,paints/images/113.jpg,268,ningtong,001,2020-11-19_14h44.26.137,test3,2020.2.5,MacIntel,60
,,,,z,0.67471,0,268,268,268,1,paints/images/353.jpg,paints/images/368.jpg,269,ningtong,001,2020-11-19_14h44.26.137,test3,2020.2.5,MacIntel,60
,,,,z,0.7794,0,269,269,269,1,paints/images/187.jpg,paints/images/86.jpg,270,ningtong,001,2020-11-19_14h44.26.137,test3,2020.2.5,MacIntel,60
,,,,m,0.924385,0,270,270,270,1,paints/images/176.jpg,paints/images/193.jpg,271,ningtong,001,2020-11-19_14h44.26.137,test3,2020.2.5,MacIntel,60
,,,,z,0.4722,0,271,271,271,1,paints/images/175.jpg,paints/images/194.jpg,272,ningtong,001,2020-11-19_14h44.26.137,test3,2020.2.5,MacIntel,60
,,,,m,0.775725,0,272,272,272,1,paints/images/407.jpg,paints/images/81.jpg,273,ningtong,001,2020-11-19_14h44.26.137,test3,2020.2.5,MacIntel,60
,,,,m,0.667195,0,273,273,273,1,paints/images/276.jpg,paints/images/77.jpg,274,ningtong,001,2020-11-19_14h44.26.137,test3,2020.2.5,MacIntel,60
,,,,m,0.79062,0,274,274,274,1,paints/images/291.jpg,paints/images/314.jpg,275,ningtong,001,2020-11-19_14h44.26.137,test3,2020.2.5,MacIntel,60
,,,,z,1.36852,0,275,275,275,1,paints/images/127.jpg,paints/images/36.jpg,276,ningtong,001,2020-11-19_14h44.26.137,test3,2020.2.5,MacIntel,60
,,,,z,0.76741,0,276,276,276,1,paints/images/372.jpg,paints/images/161.jpg,277,ningtong,001,2020-11-19_14h44.26.137,test3,2020.2.5,MacIntel,60
,,,,m,0.757655,0,277,277,277,1,paints/images/283.jpg,paints/images/350.jpg,278,ningtong,001,2020-11-19_14h44.26.137,test3,2020.2.5,MacIntel,60
,,,,z,1.03679,0,278,278,278,1,paints/images/106.jpg,paints/images/68.jpg,279,ningtong,001,2020-11-19_14h44.26.137,test3,2020.2.5,MacIntel,60
,,,,z,1.594975,0,279,279,279,1,paints/images/224.jpg,paints/images/266.jpg,280,ningtong,001,2020-11-19_14h44.26.137,test3,2020.2.5,MacIntel,60
,,,,m,0.67736,0,280,280,280,1,paints/images/375.jpg,paints/images/264.jpg,281,ningtong,001,2020-11-19_14h44.26.137,test3,2020.2.5,MacIntel,60
,,,,m,2.784285,0,281,281,281,1,paints/images/47.jpg,paints/images/87.jpg,282,ningtong,001,2020-11-19_14h44.26.137,test3,2020.2.5,MacIntel,60
,,,,m,0.58419,0,282,282,282,1,paints/images/38.jpg,paints/images/298.jpg,283,ningtong,001,2020-11-19_14h44.26.137,test3,2020.2.5,MacIntel,60
,,,,z,0.67465,0,283,283,283,1,paints/images/161.jpg,paints/images/28.jpg,284,ningtong,001,2020-11-19_14h44.26.137,test3,2020.2.5,MacIntel,60
,,,,m,0.88372,0,284,284,284,1,paints/images/298.jpg,paints/images/345.jpg,285,ningtong,001,2020-11-19_14h44.26.137,test3,2020.2.5,MacIntel,60
,,,,z,0.699045,0,285,285,285,1,paints/images/163.jpg,paints/images/205.jpg,286,ningtong,001,2020-11-19_14h44.26.137,test3,2020.2.5,MacIntel,60
,,,,z,1.11056,0,286,286,286,1,paints/images/121.jpg,paints/images/252.jpg,287,ningtong,001,2020-11-19_14h44.26.137,test3,2020.2.5,MacIntel,60
,,,,z,1.28517,0,287,287,287,1,paints/images/247.jpg,paints/images/95.jpg,288,ningtong,001,2020-11-19_14h44.26.137,test3,2020.2.5,MacIntel,60
,,,,z,0.62109,0,288,288,288,1,paints/images/321.jpg,paints/images/150.jpg,289,ningtong,001,2020-11-19_14h44.26.137,test3,2020.2.5,MacIntel,60
,,,,m,0.61682,0,289,289,289,1,paints/images/46.jpg,paints/images/226.jpg,290,ningtong,001,2020-11-19_14h44.26.137,test3,2020.2.5,MacIntel,60
,,,,z,0.673755,0,290,290,290,1,paints/images/154.jpg,paints/images/263.jpg,291,ningtong,001,2020-11-19_14h44.26.137,test3,2020.2.5,MacIntel,60
,,,,m,0.708155,0,291,291,291,1,paints/images/191.jpg,paints/images/158.jpg,292,ningtong,001,2020-11-19_14h44.26.137,test3,2020.2.5,MacIntel,60
,,,,m,0.612055,0,292,292,292,1,paints/images/49.jpg,paints/images/227.jpg,293,ningtong,001,2020-11-19_14h44.26.137,test3,2020.2.5,MacIntel,60
,,,,z,0.70387,0,293,293,293,1,paints/images/124.jpg,paints/images/89.jpg,294,ningtong,001,2020-11-19_14h44.26.137,test3,2020.2.5,MacIntel,60
,,,,z,0.768045,0,294,294,294,1,paints/images/390.jpg,paints/images/43.jpg,295,ningtong,001,2020-11-19_14h44.26.137,test3,2020.2.5,MacIntel,60
,,,,z,0.78476,0,295,295,295,1,paints/images/42.jpg,paints/images/268.jpg,296,ningtong,001,2020-11-19_14h44.26.137,test3,2020.2.5,MacIntel,60
,,,,z,0.841225,0,296,296,296,1,paints/images/113.jpg,paints/images/386.jpg,297,ningtong,001,2020-11-19_14h44.26.137,test3,2020.2.5,MacIntel,60
,,,,m,0.60352,0,297,297,297,1,paints/images/287.jpg,paints/images/307.jpg,298,ningtong,001,2020-11-19_14h44.26.137,test3,2020.2.5,MacIntel,60
,,,,z,0.751505,0,298,298,298,1,paints/images/134.jpg,paints/images/300.jpg,299,ningtong,001,2020-11-19_14h44.26.137,test3,2020.2.5,MacIntel,60
,,,,z,1.334805,0,299,299,299,1,paints/images/60.jpg,paints/images/206.jpg,300,ningtong,001,2020-11-19_14h44.26.137,test3,2020.2.5,MacIntel,60
,,,,m,0.851225,0,300,300,300,1,paints/images/384.jpg,paints/images/335.jpg,301,ningtong,001,2020-11-19_14h44.26.137,test3,2020.2.5,MacIntel,60
,,,,z,0.70385,0,301,301,301,1,paints/images/326.jpg,paints/images/139.jpg,302,ningtong,001,2020-11-19_14h44.26.137,test3,2020.2.5,MacIntel,60
,,,,z,0.774195,0,302,302,302,1,paints/images/166.jpg,paints/images/374.jpg,303,ningtong,001,2020-11-19_14h44.26.137,test3,2020.2.5,MacIntel,60
,,,,m,0.668325,0,303,303,303,1,paints/images/360.jpg,paints/images/10.jpg,304,ningtong,001,2020-11-19_14h44.26.137,test3,2020.2.5,MacIntel,60
,,,,m,1.13457,0,304,304,304,1,paints/images/158.jpg,paints/images/149.jpg,305,ningtong,001,2020-11-19_14h44.26.137,test3,2020.2.5,MacIntel,60
,,,,z,0.78491,0,305,305,305,1,paints/images/159.jpg,paints/images/362.jpg,306,ningtong,001,2020-11-19_14h44.26.137,test3,2020.2.5,MacIntel,60
,,,,z,0.71064,0,306,306,306,1,paints/images/214.jpg,paints/images/116.jpg,307,ningtong,001,2020-11-19_14h44.26.137,test3,2020.2.5,MacIntel,60
,,,,m,0.967465,0,307,307,307,1,paints/images/256.jpg,paints/images/323.jpg,308,ningtong,001,2020-11-19_14h44.26.137,test3,2020.2.5,MacIntel,60
,,,,z,0.808065,0,308,308,308,1,paints/images/36.jpg,paints/images/157.jpg,309,ningtong,001,2020-11-19_14h44.26.137,test3,2020.2.5,MacIntel,60
,,,,m,0.70113,0,309,309,309,1,paints/images/101.jpg,paints/images/126.jpg,310,ningtong,001,2020-11-19_14h44.26.137,test3,2020.2.5,MacIntel,60
,,,,m,0.80077,0,310,310,310,1,paints/images/265.jpg,paints/images/35.jpg,311,ningtong,001,2020-11-19_14h44.26.137,test3,2020.2.5,MacIntel,60
,,,,m,2.768565,0,311,311,311,1,paints/images/392.jpg,paints/images/233.jpg,312,ningtong,001,2020-11-19_14h44.26.137,test3,2020.2.5,MacIntel,60
,,,,z,0.668465,0,312,312,312,1,paints/images/251.jpg,paints/images/12.jpg,313,ningtong,001,2020-11-19_14h44.26.137,test3,2020.2.5,MacIntel,60
,,,,m,1.051895,0,313,313,313,1,paints/images/12.jpg,paints/images/144.jpg,314,ningtong,001,2020-11-19_14h44.26.137,test3,2020.2.5,MacIntel,60
,,,,z,0.67486,0,314,314,314,1,paints/images/133.jpg,paints/images/331.jpg,315,ningtong,001,2020-11-19_14h44.26.137,test3,2020.2.5,MacIntel,60
,,,,m,0.801295,0,315,315,315,1,paints/images/383.jpg,paints/images/99.jpg,316,ningtong,001,2020-11-19_14h44.26.137,test3,2020.2.5,MacIntel,60
,,,,z,0.65093,0,316,316,316,1,paints/images/211.jpg,paints/images/303.jpg,317,ningtong,001,2020-11-19_14h44.26.137,test3,2020.2.5,MacIntel,60
,,,,m,1.110525,0,317,317,317,1,paints/images/201.jpg,paints/images/238.jpg,318,ningtong,001,2020-11-19_14h44.26.137,test3,2020.2.5,MacIntel,60
,,,,m,0.74292,0,318,318,318,1,paints/images/205.jpg,paints/images/102.jpg,319,ningtong,001,2020-11-19_14h44.26.137,test3,2020.2.5,MacIntel,60
,,,,m,0.84534,0,319,319,319,1,paints/images/270.jpg,paints/images/322.jpg,320,ningtong,001,2020-11-19_14h44.26.137,test3,2020.2.5,MacIntel,60
,,,,z,0.951535,0,320,320,320,1,paints/images/341.jpg,paints/images/248.jpg,321,ningtong,001,2020-11-19_14h44.26.137,test3,2020.2.5,MacIntel,60
,,,,m,0.868755,0,321,321,321,1,paints/images/141.jpg,paints/images/94.jpg,322,ningtong,001,2020-11-19_14h44.26.137,test3,2020.2.5,MacIntel,60
,,,,z,0.7066,0,322,322,322,1,paints/images/83.jpg,paints/images/327.jpg,323,ningtong,001,2020-11-19_14h44.26.137,test3,2020.2.5,MacIntel,60
,,,,z,1.00154,0,323,323,323,1,paints/images/327.jpg,paints/images/110.jpg,324,ningtong,001,2020-11-19_14h44.26.137,test3,2020.2.5,MacIntel,60
,,,,z,1.36825,0,324,324,324,1,paints/images/157.jpg,paints/images/79.jpg,325,ningtong,001,2020-11-19_14h44.26.137,test3,2020.2.5,MacIntel,60
,,,,m,0.834995,0,325,325,325,1,paints/images/193.jpg,paints/images/74.jpg,326,ningtong,001,2020-11-19_14h44.26.137,test3,2020.2.5,MacIntel,60
,,,,z,1.13321,0,326,326,326,1,paints/images/140.jpg,paints/images/292.jpg,327,ningtong,001,2020-11-19_14h44.26.137,test3,2020.2.5,MacIntel,60
,,,,z,0.64616,0,327,327,327,1,paints/images/107.jpg,paints/images/92.jpg,328,ningtong,001,2020-11-19_14h44.26.137,test3,2020.2.5,MacIntel,60
,,,,m,1.067595,0,328,328,328,1,paints/images/7.jpg,paints/images/56.jpg,329,ningtong,001,2020-11-19_14h44.26.137,test3,2020.2.5,MacIntel,60
,,,,m,2.10488,0,329,329,329,1,paints/images/177.jpg,paints/images/141.jpg,330,ningtong,001,2020-11-19_14h44.26.137,test3,2020.2.5,MacIntel,60
,,,,m,0.766665,0,330,330,330,1,paints/images/244.jpg,paints/images/250.jpg,331,ningtong,001,2020-11-19_14h44.26.137,test3,2020.2.5,MacIntel,60
,,,,z,0.83441,0,331,331,331,1,paints/images/253.jpg,paints/images/8.jpg,332,ningtong,001,2020-11-19_14h44.26.137,test3,2020.2.5,MacIntel,60
,,,,m,1.518145,0,332,332,332,1,paints/images/136.jpg,paints/images/108.jpg,333,ningtong,001,2020-11-19_14h44.26.137,test3,2020.2.5,MacIntel,60
,,,,m,1.33384,0,333,333,333,1,paints/images/165.jpg,paints/images/147.jpg,334,ningtong,001,2020-11-19_14h44.26.137,test3,2020.2.5,MacIntel,60
,,,,m,1.10155,0,334,334,334,1,paints/images/39.jpg,paints/images/387.jpg,335,ningtong,001,2020-11-19_14h44.26.137,test3,2020.2.5,MacIntel,60
,,,,z,1.024835,0,335,335,335,1,paints/images/271.jpg,paints/images/125.jpg,336,ningtong,001,2020-11-19_14h44.26.137,test3,2020.2.5,MacIntel,60
,,,,m,0.808565,0,336,336,336,1,paints/images/90.jpg,paints/images/130.jpg,337,ningtong,001,2020-11-19_14h44.26.137,test3,2020.2.5,MacIntel,60
,,,,m,2.43678,0,337,337,337,1,paints/images/362.jpg,paints/images/60.jpg,338,ningtong,001,2020-11-19_14h44.26.137,test3,2020.2.5,MacIntel,60
,,,,m,1.001385,0,338,338,338,1,paints/images/218.jpg,paints/images/153.jpg,339,ningtong,001,2020-11-19_14h44.26.137,test3,2020.2.5,MacIntel,60
,,,,z,0.66759,0,339,339,339,1,paints/images/18.jpg,paints/images/324.jpg,340,ningtong,001,2020-11-19_14h44.26.137,test3,2020.2.5,MacIntel,60
,,,,m,0.878385,0,340,340,340,1,paints/images/29.jpg,paints/images/120.jpg,341,ningtong,001,2020-11-19_14h44.26.137,test3,2020.2.5,MacIntel,60
,,,,z,0.7685,0,341,341,341,1,paints/images/155.jpg,paints/images/142.jpg,342,ningtong,001,2020-11-19_14h44.26.137,test3,2020.2.5,MacIntel,60
,,,,m,0.801125,0,342,342,342,1,paints/images/148.jpg,paints/images/396.jpg,343,ningtong,001,2020-11-19_14h44.26.137,test3,2020.2.5,MacIntel,60
,,,,m,1.178235,0,343,343,343,1,paints/images/373.jpg,paints/images/218.jpg,344,ningtong,001,2020-11-19_14h44.26.137,test3,2020.2.5,MacIntel,60
,,,,z,0.701985,0,344,344,344,1,paints/images/231.jpg,paints/images/73.jpg,345,ningtong,001,2020-11-19_14h44.26.137,test3,2020.2.5,MacIntel,60
,,,,z,0.76481,0,345,345,345,1,paints/images/240.jpg,paints/images/356.jpg,346,ningtong,001,2020-11-19_14h44.26.137,test3,2020.2.5,MacIntel,60
,,,,m,0.662095,0,346,346,346,1,paints/images/332.jpg,paints/images/347.jpg,347,ningtong,001,2020-11-19_14h44.26.137,test3,2020.2.5,MacIntel,60
,,,,m,0.81093,0,347,347,347,1,paints/images/254.jpg,paints/images/310.jpg,348,ningtong,001,2020-11-19_14h44.26.137,test3,2020.2.5,MacIntel,60
,,,,m,0.651585,0,348,348,348,1,paints/images/405.jpg,paints/images/385.jpg,349,ningtong,001,2020-11-19_14h44.26.137,test3,2020.2.5,MacIntel,60
,,,,m,0.999815,0,349,349,349,1,paints/images/345.jpg,paints/images/274.jpg,350,ningtong,001,2020-11-19_14h44.26.137,test3,2020.2.5,MacIntel,60
,,,,z,0.66819,0,350,350,350,1,paints/images/363.jpg,paints/images/18.jpg,351,ningtong,001,2020-11-19_14h44.26.137,test3,2020.2.5,MacIntel,60
,,,,m,0.750925,0,351,351,351,1,paints/images/37.jpg,paints/images/53.jpg,352,ningtong,001,2020-11-19_14h44.26.137,test3,2020.2.5,MacIntel,60
,,,,m,0.701435,0,352,352,352,1,paints/images/315.jpg,paints/images/319.jpg,353,ningtong,001,2020-11-19_14h44.26.137,test3,2020.2.5,MacIntel,60
,,,,m,0.834355,0,353,353,353,1,paints/images/74.jpg,paints/images/403.jpg,354,ningtong,001,2020-11-19_14h44.26.137,test3,2020.2.5,MacIntel,60
,,,,z,0.66795,0,354,354,354,1,paints/images/156.jpg,paints/images/246.jpg,355,ningtong,001,2020-11-19_14h44.26.137,test3,2020.2.5,MacIntel,60
,,,,z,0.706665,0,355,355,355,1,paints/images/285.jpg,paints/images/270.jpg,356,ningtong,001,2020-11-19_14h44.26.137,test3,2020.2.5,MacIntel,60
,,,,z,0.708205,0,356,356,356,1,paints/images/17.jpg,paints/images/398.jpg,357,ningtong,001,2020-11-19_14h44.26.137,test3,2020.2.5,MacIntel,60
,,,,z,0.801695,0,357,357,357,1,paints/images/335.jpg,paints/images/27.jpg,358,ningtong,001,2020-11-19_14h44.26.137,test3,2020.2.5,MacIntel,60
,,,,z,0.834305,0,358,358,358,1,paints/images/350.jpg,paints/images/156.jpg,359,ningtong,001,2020-11-19_14h44.26.137,test3,2020.2.5,MacIntel,60
,,,,m,0.85108,0,359,359,359,1,paints/images/31.jpg,paints/images/231.jpg,360,ningtong,001,2020-11-19_14h44.26.137,test3,2020.2.5,MacIntel,60
,,,,z,1.26991,0,360,360,360,1,paints/images/114.jpg,paints/images/333.jpg,361,ningtong,001,2020-11-19_14h44.26.137,test3,2020.2.5,MacIntel,60
,,,,m,1.14218,0,361,361,361,1,paints/images/79.jpg,paints/images/408.jpg,362,ningtong,001,2020-11-19_14h44.26.137,test3,2020.2.5,MacIntel,60
,,,,z,1.398395,0,362,362,362,1,paints/images/338.jpg,paints/images/279.jpg,363,ningtong,001,2020-11-19_14h44.26.137,test3,2020.2.5,MacIntel,60
,,,,m,1.77235,0,363,363,363,1,paints/images/354.jpg,paints/images/304.jpg,364,ningtong,001,2020-11-19_14h44.26.137,test3,2020.2.5,MacIntel,60
,,,,z,2.44117,0,364,364,364,1,paints/images/128.jpg,paints/images/276.jpg,365,ningtong,001,2020-11-19_14h44.26.137,test3,2020.2.5,MacIntel,60
,,,,m,0.886295,0,365,365,365,1,paints/images/35.jpg,paints/images/188.jpg,366,ningtong,001,2020-11-19_14h44.26.137,test3,2020.2.5,MacIntel,60
,,,,z,1.079215,0,366,366,366,1,paints/images/16.jpg,paints/images/29.jpg,367,ningtong,001,2020-11-19_14h44.26.137,test3,2020.2.5,MacIntel,60
,,,,m,0.867725,0,367,367,367,1,paints/images/119.jpg,paints/images/251.jpg,368,ningtong,001,2020-11-19_14h44.26.137,test3,2020.2.5,MacIntel,60
,,,,m,1.406495,0,368,368,368,1,paints/images/207.jpg,paints/images/65.jpg,369,ningtong,001,2020-11-19_14h44.26.137,test3,2020.2.5,MacIntel,60
,,,,z,0.94285,0,369,369,369,1,paints/images/173.jpg,paints/images/373.jpg,370,ningtong,001,2020-11-19_14h44.26.137,test3,2020.2.5,MacIntel,60
,,,,z,0.801225,0,370,370,370,1,paints/images/135.jpg,paints/images/196.jpg,371,ningtong,001,2020-11-19_14h44.26.137,test3,2020.2.5,MacIntel,60
,,,,z,3.49224,0,371,371,371,1,paints/images/55.jpg,paints/images/316.jpg,372,ningtong,001,2020-11-19_14h44.26.137,test3,2020.2.5,MacIntel,60
,,,,z,1.98598,0,372,372,372,1,paints/images/343.jpg,paints/images/383.jpg,373,ningtong,001,2020-11-19_14h44.26.137,test3,2020.2.5,MacIntel,60
,,,,z,0.85315,0,373,373,373,1,paints/images/203.jpg,paints/images/186.jpg,374,ningtong,001,2020-11-19_14h44.26.137,test3,2020.2.5,MacIntel,60
,,,,z,0.798925,0,374,374,374,1,paints/images/123.jpg,paints/images/128.jpg,375,ningtong,001,2020-11-19_14h44.26.137,test3,2020.2.5,MacIntel,60
,,,,z,1.974965,0,375,375,375,1,paints/images/391.jpg,paints/images/208.jpg,376,ningtong,001,2020-11-19_14h44.26.137,test3,2020.2.5,MacIntel,60
,,,,m,1.03481,0,376,376,376,1,paints/images/105.jpg,paints/images/313.jpg,377,ningtong,001,2020-11-19_14h44.26.137,test3,2020.2.5,MacIntel,60
,,,,m,1.001655,0,377,377,377,1,paints/images/184.jpg,paints/images/69.jpg,378,ningtong,001,2020-11-19_14h44.26.137,test3,2020.2.5,MacIntel,60
,,,,z,1.978725,0,378,378,378,1,paints/images/63.jpg,paints/images/191.jpg,379,ningtong,001,2020-11-19_14h44.26.137,test3,2020.2.5,MacIntel,60
,,,,m,1.589675,0,379,379,379,1,paints/images/85.jpg,paints/images/390.jpg,380,ningtong,001,2020-11-19_14h44.26.137,test3,2020.2.5,MacIntel,60
,,,,m,1.049535,0,380,380,380,1,paints/images/179.jpg,paints/images/177.jpg,381,ningtong,001,2020-11-19_14h44.26.137,test3,2020.2.5,MacIntel,60
,,,,m,2.146125,0,381,381,381,1,paints/images/320.jpg,paints/images/171.jpg,382,ningtong,001,2020-11-19_14h44.26.137,test3,2020.2.5,MacIntel,60
,,,,m,1.32563,0,382,382,382,1,paints/images/77.jpg,paints/images/406.jpg,383,ningtong,001,2020-11-19_14h44.26.137,test3,2020.2.5,MacIntel,60
,,,,m,1.024415,0,383,383,383,1,paints/images/66.jpg,paints/images/255.jpg,384,ningtong,001,2020-11-19_14h44.26.137,test3,2020.2.5,MacIntel,60
,,,,z,1.30526,0,384,384,384,1,paints/images/308.jpg,paints/images/41.jpg,385,ningtong,001,2020-11-19_14h44.26.137,test3,2020.2.5,MacIntel,60
,,,,m,0.868495,0,385,385,385,1,paints/images/260.jpg,paints/images/297.jpg,386,ningtong,001,2020-11-19_14h44.26.137,test3,2020.2.5,MacIntel,60
,,,,m,0.915445,0,386,386,386,1,paints/images/126.jpg,paints/images/273.jpg,387,ningtong,001,2020-11-19_14h44.26.137,test3,2020.2.5,MacIntel,60
,,,,m,2.234845,0,387,387,387,1,paints/images/68.jpg,paints/images/189.jpg,388,ningtong,001,2020-11-19_14h44.26.137,test3,2020.2.5,MacIntel,60
,,,,z,1.147695,0,388,388,388,1,paints/images/144.jpg,paints/images/280.jpg,389,ningtong,001,2020-11-19_14h44.26.137,test3,2020.2.5,MacIntel,60
,,,,m,0.908575,0,389,389,389,1,paints/images/24.jpg,paints/images/389.jpg,390,ningtong,001,2020-11-19_14h44.26.137,test3,2020.2.5,MacIntel,60
,,,,z,1.317625,0,390,390,390,1,paints/images/222.jpg,paints/images/7.jpg,391,ningtong,001,2020-11-19_14h44.26.137,test3,2020.2.5,MacIntel,60
,,,,m,2.07548,0,391,391,391,1,paints/images/282.jpg,paints/images/278.jpg,392,ningtong,001,2020-11-19_14h44.26.137,test3,2020.2.5,MacIntel,60
,,,,z,1.55523,0,392,392,392,1,paints/images/190.jpg,paints/images/61.jpg,393,ningtong,001,2020-11-19_14h44.26.137,test3,2020.2.5,MacIntel,60
,,,,z,1.68481,0,393,393,393,1,paints/images/212.jpg,paints/images/402.jpg,394,ningtong,001,2020-11-19_14h44.26.137,test3,2020.2.5,MacIntel,60
,,,,m,2.25414,0,394,394,394,1,paints/images/80.jpg,paints/images/410.jpg,395,ningtong,001,2020-11-19_14h44.26.137,test3,2020.2.5,MacIntel,60
,,,,z,1.05078,0,395,395,395,1,paints/images/252.jpg,paints/images/382.jpg,396,ningtong,001,2020-11-19_14h44.26.137,test3,2020.2.5,MacIntel,60
,,,,m,1.141765,0,396,396,396,1,paints/images/71.jpg,paints/images/337.jpg,397,ningtong,001,2020-11-19_14h44.26.137,test3,2020.2.5,MacIntel,60
,,,,m,0.901265,0,397,397,397,1,paints/images/264.jpg,paints/images/118.jpg,398,ningtong,001,2020-11-19_14h44.26.137,test3,2020.2.5,MacIntel,60
,,,,z,0.82381,0,398,398,398,1,paints/images/180.jpg,paints/images/357.jpg,399,ningtong,001,2020-11-19_14h44.26.137,test3,2020.2.5,MacIntel,60
,,,,m,3.97461,0,399,399,399,1,paints/images/357.jpg,paints/images/15.jpg,400,ningtong,001,2020-11-19_14h44.26.137,test3,2020.2.5,MacIntel,60
,,,,m,1.217485,0,400,400,400,1,paints/images/401.jpg,paints/images/220.jpg,401,ningtong,001,2020-11-19_14h44.26.137,test3,2020.2.5,MacIntel,60
,,,,m,0.8021,0,401,401,401,1,paints/images/95.jpg,paints/images/135.jpg,402,ningtong,001,2020-11-19_14h44.26.137,test3,2020.2.5,MacIntel,60
,,,,m,0.62565,0,402,402,402,1,paints/images/152.jpg,paints/images/234.jpg,403,ningtong,001,2020-11-19_14h44.26.137,test3,2020.2.5,MacIntel,60
,,,,m,1.00135,0,403,403,403,1,paints/images/30.jpg,paints/images/88.jpg,404,ningtong,001,2020-11-19_14h44.26.137,test3,2020.2.5,MacIntel,60
,,,,z,1.00764,0,404,404,404,1,paints/images/194.jpg,paints/images/392.jpg,405,ningtong,001,2020-11-19_14h44.26.137,test3,2020.2.5,MacIntel,60
,,,,z,0.72446,0,405,405,405,1,paints/images/351.jpg,paints/images/103.jpg,406,ningtong,001,2020-11-19_14h44.26.137,test3,2020.2.5,MacIntel,60
,,,,z,0.918255,0,406,406,406,1,paints/images/236.jpg,paints/images/369.jpg,407,ningtong,001,2020-11-19_14h44.26.137,test3,2020.2.5,MacIntel,60
,,,,z,1.096445,0,407,407,407,1,paints/images/219.jpg,paints/images/136.jpg,408,ningtong,001,2020-11-19_14h44.26.137,test3,2020.2.5,MacIntel,60
,,,,m,1.10368,0,408,408,408,1,paints/images/306.jpg,paints/images/239.jpg,409,ningtong,001,2020-11-19_14h44.26.137,test3,2020.2.5,MacIntel,60
,,,,m,1.02628,0,409,409,409,1,paints/images/108.jpg,paints/images/259.jpg,410,ningtong,001,2020-11-19_14h44.26.137,test3,2020.2.5,MacIntel,60
,,,,m,0.9093,0,410,410,410,1,paints/images/210.jpg,paints/images/30.jpg,411,ningtong,001,2020-11-19_14h44.26.137,test3,2020.2.5,MacIntel,60
