key_resp.keys,key_resp.rt,key_resp_3.keys,key_resp_3.rt,key_resp_2.keys,key_resp_2.rt,trials.thisRepN,trials.thisTrialN,trials.thisN,trials.thisIndex,trials.ran,image_left,image_right,trial_num,participant,session,date,expName,psychopyVersion,OS,frameRate,key_resp_5.keys,key_resp_5.rt,key_resp_4.keys,key_resp_4.rt,trials_2.thisRepN,trials_2.thisTrialN,trials_2.thisN,trials_2.thisIndex,trials_2.ran
space,2.9334,space,36.569715,z,4.159525,0,0,0,0,1,paints/images/344.jpg,paints/images/121.jpg,1,rajeev,1,2020-11-20_20h51.25.361,test3,2020.2.4,Win32,60,,,,,,,,,
,,,,m,6.46729,0,1,1,1,1,paints/images/369.jpg,paints/images/367.jpg,2,rajeev,1,2020-11-20_20h51.25.361,test3,2020.2.4,Win32,60,,,,,,,,,
,,,,z,3.811645,0,2,2,2,1,paints/images/385.jpg,paints/images/253.jpg,3,rajeev,1,2020-11-20_20h51.25.361,test3,2020.2.4,Win32,60,,,,,,,,,
,,,,m,4.027305,0,3,3,3,1,paints/images/230.jpg,paints/images/124.jpg,4,rajeev,1,2020-11-20_20h51.25.361,test3,2020.2.4,Win32,60,,,,,,,,,
,,,,m,5.040905,0,4,4,4,1,paints/images/284.jpg,paints/images/172.jpg,5,rajeev,1,2020-11-20_20h51.25.361,test3,2020.2.4,Win32,60,,,,,,,,,
,,,,z,1.56013,0,5,5,5,1,paints/images/325.jpg,paints/images/5.jpg,6,rajeev,1,2020-11-20_20h51.25.361,test3,2020.2.4,Win32,60,,,,,,,,,
,,,,z,3.019515,0,6,6,6,1,paints/images/2.jpg,paints/images/107.jpg,7,rajeev,1,2020-11-20_20h51.25.361,test3,2020.2.4,Win32,60,,,,,,,,,
,,,,m,3.506995,0,7,7,7,1,paints/images/330.jpg,paints/images/93.jpg,8,rajeev,1,2020-11-20_20h51.25.361,test3,2020.2.4,Win32,60,,,,,,,,,
,,,,m,4.087005,0,8,8,8,1,paints/images/197.jpg,paints/images/20.jpg,9,rajeev,1,2020-11-20_20h51.25.361,test3,2020.2.4,Win32,60,,,,,,,,,
,,,,m,7.30656,0,9,9,9,1,paints/images/233.jpg,paints/images/346.jpg,10,rajeev,1,2020-11-20_20h51.25.361,test3,2020.2.4,Win32,60,,,,,,,,,
,,,,z,5.599975,0,10,10,10,1,paints/images/289.jpg,paints/images/317.jpg,11,rajeev,1,2020-11-20_20h51.25.361,test3,2020.2.4,Win32,60,,,,,,,,,
,,,,z,4.44615,0,11,11,11,1,paints/images/189.jpg,paints/images/230.jpg,12,rajeev,1,2020-11-20_20h51.25.361,test3,2020.2.4,Win32,60,,,,,,,,,
,,,,z,8.44766,0,12,12,12,1,paints/images/28.jpg,paints/images/401.jpg,13,rajeev,1,2020-11-20_20h51.25.361,test3,2020.2.4,Win32,60,,,,,,,,,
,,,,z,6.747005,0,13,13,13,1,paints/images/183.jpg,paints/images/198.jpg,14,rajeev,1,2020-11-20_20h51.25.361,test3,2020.2.4,Win32,60,,,,,,,,,
,,,,m,3.35637,0,14,14,14,1,paints/images/223.jpg,paints/images/249.jpg,15,rajeev,1,2020-11-20_20h51.25.361,test3,2020.2.4,Win32,60,,,,,,,,,
,,,,m,2.518865,0,15,15,15,1,paints/images/331.jpg,paints/images/168.jpg,16,rajeev,1,2020-11-20_20h51.25.361,test3,2020.2.4,Win32,60,,,,,,,,,
,,,,m,3.79809,0,16,16,16,1,paints/images/129.jpg,paints/images/21.jpg,17,rajeev,1,2020-11-20_20h51.25.361,test3,2020.2.4,Win32,60,,,,,,,,,
,,,,z,3.31719,0,17,17,17,1,paints/images/250.jpg,paints/images/290.jpg,18,rajeev,1,2020-11-20_20h51.25.361,test3,2020.2.4,Win32,60,,,,,,,,,
,,,,m,5.143445,0,18,18,18,1,paints/images/342.jpg,paints/images/371.jpg,19,rajeev,1,2020-11-20_20h51.25.361,test3,2020.2.4,Win32,60,,,,,,,,,
,,,,m,2.662055,0,19,19,19,1,paints/images/312.jpg,paints/images/349.jpg,20,rajeev,1,2020-11-20_20h51.25.361,test3,2020.2.4,Win32,60,,,,,,,,,
,,,,z,2.65089,0,20,20,20,1,paints/images/44.jpg,paints/images/23.jpg,21,rajeev,1,2020-11-20_20h51.25.361,test3,2020.2.4,Win32,60,,,,,,,,,
,,,,z,6.02171,0,21,21,21,1,paints/images/209.jpg,paints/images/236.jpg,22,rajeev,1,2020-11-20_20h51.25.361,test3,2020.2.4,Win32,60,,,,,,,,,
,,,,z,4.90158,0,22,22,22,1,paints/images/314.jpg,paints/images/326.jpg,23,rajeev,1,2020-11-20_20h51.25.361,test3,2020.2.4,Win32,60,,,,,,,,,
,,,,m,4.7423,0,23,23,23,1,paints/images/374.jpg,paints/images/397.jpg,24,rajeev,1,2020-11-20_20h51.25.361,test3,2020.2.4,Win32,60,,,,,,,,,
,,,,z,5.35691,0,24,24,24,1,paints/images/355.jpg,paints/images/400.jpg,25,rajeev,1,2020-11-20_20h51.25.361,test3,2020.2.4,Win32,60,,,,,,,,,
,,,,z,3.00112,0,25,25,25,1,paints/images/346.jpg,paints/images/223.jpg,26,rajeev,1,2020-11-20_20h51.25.361,test3,2020.2.4,Win32,60,,,,,,,,,
,,,,m,1.38851,0,26,26,26,1,paints/images/292.jpg,paints/images/122.jpg,27,rajeev,1,2020-11-20_20h51.25.361,test3,2020.2.4,Win32,60,,,,,,,,,
,,,,z,3.964435,0,27,27,27,1,paints/images/81.jpg,paints/images/294.jpg,28,rajeev,1,2020-11-20_20h51.25.361,test3,2020.2.4,Win32,60,,,,,,,,,
,,,,z,4.35958,0,28,28,28,1,paints/images/359.jpg,paints/images/370.jpg,29,rajeev,1,2020-11-20_20h51.25.361,test3,2020.2.4,Win32,60,,,,,,,,,
,,,,m,4.62633,0,29,29,29,1,paints/images/88.jpg,paints/images/119.jpg,30,rajeev,1,2020-11-20_20h51.25.361,test3,2020.2.4,Win32,60,,,,,,,,,
,,,,z,2.178845,0,30,30,30,1,paints/images/178.jpg,paints/images/47.jpg,31,rajeev,1,2020-11-20_20h51.25.361,test3,2020.2.4,Win32,60,,,,,,,,,
,,,,m,2.55028,0,31,31,31,1,paints/images/139.jpg,paints/images/377.jpg,32,rajeev,1,2020-11-20_20h51.25.361,test3,2020.2.4,Win32,60,,,,,,,,,
,,,,m,1.545715,0,32,32,32,1,paints/images/142.jpg,paints/images/379.jpg,33,rajeev,1,2020-11-20_20h51.25.361,test3,2020.2.4,Win32,60,,,,,,,,,
,,,,m,2.60143,0,33,33,33,1,paints/images/366.jpg,paints/images/22.jpg,34,rajeev,1,2020-11-20_20h51.25.361,test3,2020.2.4,Win32,60,,,,,,,,,
,,,,m,2.78485,0,34,34,34,1,paints/images/277.jpg,paints/images/365.jpg,35,rajeev,1,2020-11-20_20h51.25.361,test3,2020.2.4,Win32,60,,,,,,,,,
,,,,m,6.565975,0,35,35,35,1,paints/images/406.jpg,paints/images/388.jpg,36,rajeev,1,2020-11-20_20h51.25.361,test3,2020.2.4,Win32,60,,,,,,,,,
,,,,z,2.67898,0,36,36,36,1,paints/images/389.jpg,paints/images/104.jpg,37,rajeev,1,2020-11-20_20h51.25.361,test3,2020.2.4,Win32,60,,,,,,,,,
,,,,z,3.753065,0,37,37,37,1,paints/images/20.jpg,paints/images/84.jpg,38,rajeev,1,2020-11-20_20h51.25.361,test3,2020.2.4,Win32,60,,,,,,,,,
,,,,m,1.245525,0,38,38,38,1,paints/images/169.jpg,paints/images/163.jpg,39,rajeev,1,2020-11-20_20h51.25.361,test3,2020.2.4,Win32,60,,,,,,,,,
,,,,m,3.858915,0,39,39,39,1,paints/images/58.jpg,paints/images/359.jpg,40,rajeev,1,2020-11-20_20h51.25.361,test3,2020.2.4,Win32,60,,,,,,,,,
,,,,z,3.14214,0,40,40,40,1,paints/images/376.jpg,paints/images/256.jpg,41,rajeev,1,2020-11-20_20h51.25.361,test3,2020.2.4,Win32,60,,,,,,,,,
,,,,z,5.25573,0,41,41,41,1,paints/images/33.jpg,paints/images/261.jpg,42,rajeev,1,2020-11-20_20h51.25.361,test3,2020.2.4,Win32,60,,,,,,,,,
,,,,m,1.283145,0,42,42,42,1,paints/images/294.jpg,paints/images/96.jpg,43,rajeev,1,2020-11-20_20h51.25.361,test3,2020.2.4,Win32,60,,,,,,,,,
,,,,m,7.254265,0,43,43,43,1,paints/images/269.jpg,paints/images/293.jpg,44,rajeev,1,2020-11-20_20h51.25.361,test3,2020.2.4,Win32,60,,,,,,,,,
,,,,z,1.884725,0,44,44,44,1,paints/images/199.jpg,paints/images/284.jpg,45,rajeev,1,2020-11-20_20h51.25.361,test3,2020.2.4,Win32,60,,,,,,,,,
,,,,m,6.168965,0,45,45,45,1,paints/images/255.jpg,paints/images/281.jpg,46,rajeev,1,2020-11-20_20h51.25.361,test3,2020.2.4,Win32,60,,,,,,,,,
,,,,m,1.49776,0,46,46,46,1,paints/images/382.jpg,paints/images/4.jpg,47,rajeev,1,2020-11-20_20h51.25.361,test3,2020.2.4,Win32,60,,,,,,,,,
,,,,z,2.63329,0,47,47,47,1,paints/images/111.jpg,paints/images/83.jpg,48,rajeev,1,2020-11-20_20h51.25.361,test3,2020.2.4,Win32,60,,,,,,,,,
,,,,m,1.569185,0,48,48,48,1,paints/images/239.jpg,paints/images/151.jpg,49,rajeev,1,2020-11-20_20h51.25.361,test3,2020.2.4,Win32,60,,,,,,,,,
,,,,m,1.84514,0,49,49,49,1,paints/images/84.jpg,paints/images/341.jpg,50,rajeev,1,2020-11-20_20h51.25.361,test3,2020.2.4,Win32,60,,,,,,,,,
,,,,m,2.66,0,50,50,50,1,paints/images/317.jpg,paints/images/159.jpg,51,rajeev,1,2020-11-20_20h51.25.361,test3,2020.2.4,Win32,60,,,,,,,,,
,,,,z,1.501505,0,51,51,51,1,paints/images/153.jpg,paints/images/212.jpg,52,rajeev,1,2020-11-20_20h51.25.361,test3,2020.2.4,Win32,60,,,,,,,,,
,,,,m,1.35538,0,52,52,52,1,paints/images/5.jpg,paints/images/361.jpg,53,rajeev,1,2020-11-20_20h51.25.361,test3,2020.2.4,Win32,60,,,,,,,,,
,,,,z,1.61023,0,53,53,53,1,paints/images/319.jpg,paints/images/178.jpg,54,rajeev,1,2020-11-20_20h51.25.361,test3,2020.2.4,Win32,60,,,,,,,,,
,,,,z,1.643265,0,54,54,54,1,paints/images/118.jpg,paints/images/275.jpg,55,rajeev,1,2020-11-20_20h51.25.361,test3,2020.2.4,Win32,60,,,,,,,,,
,,,,z,4.54147,0,55,55,55,1,paints/images/213.jpg,paints/images/312.jpg,56,rajeev,1,2020-11-20_20h51.25.361,test3,2020.2.4,Win32,60,,,,,,,,,
,,,,z,5.22484,0,56,56,56,1,paints/images/4.jpg,paints/images/131.jpg,57,rajeev,1,2020-11-20_20h51.25.361,test3,2020.2.4,Win32,60,,,,,,,,,
,,,,m,2.41748,0,57,57,57,1,paints/images/206.jpg,paints/images/391.jpg,58,rajeev,1,2020-11-20_20h51.25.361,test3,2020.2.4,Win32,60,,,,,,,,,
,,,,m,1.858645,0,58,58,58,1,paints/images/349.jpg,paints/images/240.jpg,59,rajeev,1,2020-11-20_20h51.25.361,test3,2020.2.4,Win32,60,,,,,,,,,
,,,,z,3.696605,0,59,59,59,1,paints/images/174.jpg,paints/images/197.jpg,60,rajeev,1,2020-11-20_20h51.25.361,test3,2020.2.4,Win32,60,,,,,,,,,
,,,,z,2.735495,0,60,60,60,1,paints/images/93.jpg,paints/images/330.jpg,61,rajeev,1,2020-11-20_20h51.25.361,test3,2020.2.4,Win32,60,,,,,,,,,
,,,,m,2.517835,0,61,61,61,1,paints/images/262.jpg,paints/images/225.jpg,62,rajeev,1,2020-11-20_20h51.25.361,test3,2020.2.4,Win32,60,,,,,,,,,
,,,,m,2.53843,0,62,62,62,1,paints/images/322.jpg,paints/images/267.jpg,63,rajeev,1,2020-11-20_20h51.25.361,test3,2020.2.4,Win32,60,,,,,,,,,
,,,,m,2.95554,0,63,63,63,1,paints/images/104.jpg,paints/images/140.jpg,64,rajeev,1,2020-11-20_20h51.25.361,test3,2020.2.4,Win32,60,,,,,,,,,
,,,,m,4.262375,0,64,64,64,1,paints/images/400.jpg,paints/images/355.jpg,65,rajeev,1,2020-11-20_20h51.25.361,test3,2020.2.4,Win32,60,,,,,,,,,
,,,,z,5.42123,0,65,65,65,1,paints/images/89.jpg,paints/images/380.jpg,66,rajeev,1,2020-11-20_20h51.25.361,test3,2020.2.4,Win32,60,,,,,,,,,
,,,,m,7.4165,0,66,66,66,1,paints/images/181.jpg,paints/images/195.jpg,67,rajeev,1,2020-11-20_20h51.25.361,test3,2020.2.4,Win32,60,,,,,,,,,
,,,,z,5.19105,0,67,67,67,1,paints/images/130.jpg,paints/images/155.jpg,68,rajeev,1,2020-11-20_20h51.25.361,test3,2020.2.4,Win32,60,,,,,,,,,
,,,,z,1.48781,0,68,68,68,1,paints/images/15.jpg,paints/images/55.jpg,69,rajeev,1,2020-11-20_20h51.25.361,test3,2020.2.4,Win32,60,,,,,,,,,
,,,,z,1.541915,0,69,69,69,1,paints/images/393.jpg,paints/images/34.jpg,70,rajeev,1,2020-11-20_20h51.25.361,test3,2020.2.4,Win32,60,,,,,,,,,
,,,,m,1.428145,0,70,70,70,1,paints/images/192.jpg,paints/images/351.jpg,71,rajeev,1,2020-11-20_20h51.25.361,test3,2020.2.4,Win32,60,,,,,,,,,
,,,,m,1.668165,0,71,71,71,1,paints/images/57.jpg,paints/images/363.jpg,72,rajeev,1,2020-11-20_20h51.25.361,test3,2020.2.4,Win32,60,,,,,,,,,
,,,,z,1.996,0,72,72,72,1,paints/images/243.jpg,paints/images/295.jpg,73,rajeev,1,2020-11-20_20h51.25.361,test3,2020.2.4,Win32,60,,,,,,,,,
,,,,m,2.99437,0,73,73,73,1,paints/images/196.jpg,paints/images/146.jpg,74,rajeev,1,2020-11-20_20h51.25.361,test3,2020.2.4,Win32,60,,,,,,,,,
,,,,z,2.5054,0,74,74,74,1,paints/images/367.jpg,paints/images/332.jpg,75,rajeev,1,2020-11-20_20h51.25.361,test3,2020.2.4,Win32,60,,,,,,,,,
,,,,z,4.31146,0,75,75,75,1,paints/images/249.jpg,paints/images/50.jpg,76,rajeev,1,2020-11-20_20h51.25.361,test3,2020.2.4,Win32,60,,,,,,,,,
,,,,z,2.69211,0,76,76,76,1,paints/images/100.jpg,paints/images/91.jpg,77,rajeev,1,2020-11-20_20h51.25.361,test3,2020.2.4,Win32,60,,,,,,,,,
,,,,z,8.23115,0,77,77,77,1,paints/images/301.jpg,paints/images/154.jpg,78,rajeev,1,2020-11-20_20h51.25.361,test3,2020.2.4,Win32,60,,,,,,,,,
,,,,z,2.370135,0,78,78,78,1,paints/images/13.jpg,paints/images/308.jpg,79,rajeev,1,2020-11-20_20h51.25.361,test3,2020.2.4,Win32,60,,,,,,,,,
,,,,m,1.37726,0,79,79,79,1,paints/images/11.jpg,paints/images/24.jpg,80,rajeev,1,2020-11-20_20h51.25.361,test3,2020.2.4,Win32,60,,,,,,,,,
,,,,m,3.792055,0,80,80,80,1,paints/images/27.jpg,paints/images/114.jpg,81,rajeev,1,2020-11-20_20h51.25.361,test3,2020.2.4,Win32,60,,,,,,,,,
,,,,m,1.434435,0,81,81,81,1,paints/images/334.jpg,paints/images/217.jpg,82,rajeev,1,2020-11-20_20h51.25.361,test3,2020.2.4,Win32,60,,,,,,,,,
,,,,z,4.069975,0,82,82,82,1,paints/images/340.jpg,paints/images/320.jpg,83,rajeev,1,2020-11-20_20h51.25.361,test3,2020.2.4,Win32,60,,,,,,,,,
,,,,m,2.96384,0,83,83,83,1,paints/images/204.jpg,paints/images/52.jpg,84,rajeev,1,2020-11-20_20h51.25.361,test3,2020.2.4,Win32,60,,,,,,,,,
,,,,m,2.79608,0,84,84,84,1,paints/images/266.jpg,paints/images/179.jpg,85,rajeev,1,2020-11-20_20h51.25.361,test3,2020.2.4,Win32,60,,,,,,,,,
,,,,z,4.39454,0,85,85,85,1,paints/images/309.jpg,paints/images/45.jpg,86,rajeev,1,2020-11-20_20h51.25.361,test3,2020.2.4,Win32,60,,,,,,,,,
,,,,m,1.85126,0,86,86,86,1,paints/images/48.jpg,paints/images/352.jpg,87,rajeev,1,2020-11-20_20h51.25.361,test3,2020.2.4,Win32,60,,,,,,,,,
,,,,z,1.21147,0,87,87,87,1,paints/images/238.jpg,paints/images/190.jpg,88,rajeev,1,2020-11-20_20h51.25.361,test3,2020.2.4,Win32,60,,,,,,,,,
,,,,z,8.313925,0,88,88,88,1,paints/images/216.jpg,paints/images/207.jpg,89,rajeev,1,2020-11-20_20h51.25.361,test3,2020.2.4,Win32,60,,,,,,,,,
,,,,z,6.386375,0,89,89,89,1,paints/images/228.jpg,paints/images/315.jpg,90,rajeev,1,2020-11-20_20h51.25.361,test3,2020.2.4,Win32,60,,,,,,,,,
,,,,z,2.2646,0,90,90,90,1,paints/images/368.jpg,paints/images/221.jpg,91,rajeev,1,2020-11-20_20h51.25.361,test3,2020.2.4,Win32,60,,,,,,,,,
,,,,m,4.744905,0,91,91,91,1,paints/images/402.jpg,paints/images/257.jpg,92,rajeev,1,2020-11-20_20h51.25.361,test3,2020.2.4,Win32,60,,,,,,,,,
,,,,z,2.74135,0,92,92,92,1,paints/images/248.jpg,paints/images/296.jpg,93,rajeev,1,2020-11-20_20h51.25.361,test3,2020.2.4,Win32,60,,,,,,,,,
,,,,m,4.08878,0,93,93,93,1,paints/images/234.jpg,paints/images/174.jpg,94,rajeev,1,2020-11-20_20h51.25.361,test3,2020.2.4,Win32,60,,,,,,,,,
,,,,m,1.72549,0,94,94,94,1,paints/images/149.jpg,paints/images/204.jpg,95,rajeev,1,2020-11-20_20h51.25.361,test3,2020.2.4,Win32,60,,,,,,,,,
,,,,m,4.481705,0,95,95,95,1,paints/images/56.jpg,paints/images/117.jpg,96,rajeev,1,2020-11-20_20h51.25.361,test3,2020.2.4,Win32,60,,,,,,,,,
,,,,m,2.02597,0,96,96,96,1,paints/images/146.jpg,paints/images/287.jpg,97,rajeev,1,2020-11-20_20h51.25.361,test3,2020.2.4,Win32,60,,,,,,,,,
,,,,m,3.348885,0,97,97,97,1,paints/images/221.jpg,paints/images/62.jpg,98,rajeev,1,2020-11-20_20h51.25.361,test3,2020.2.4,Win32,60,,,,,,,,,
,,,,m,1.61816,0,98,98,98,1,paints/images/110.jpg,paints/images/321.jpg,99,rajeev,1,2020-11-20_20h51.25.361,test3,2020.2.4,Win32,60,,,,,,,,,
,,,,z,5.60239,0,99,99,99,1,paints/images/67.jpg,paints/images/384.jpg,100,rajeev,1,2020-11-20_20h51.25.361,test3,2020.2.4,Win32,60,,,,,,,,,
,,,,m,4.343975,0,100,100,100,1,paints/images/356.jpg,paints/images/137.jpg,101,rajeev,1,2020-11-20_20h51.25.361,test3,2020.2.4,Win32,60,,,,,,,,,
,,,,z,3.740675,0,101,101,101,1,paints/images/274.jpg,paints/images/232.jpg,102,rajeev,1,2020-11-20_20h51.25.361,test3,2020.2.4,Win32,60,,,,,,,,,
,,,,z,3.692115,0,102,102,102,1,paints/images/70.jpg,paints/images/183.jpg,103,rajeev,1,2020-11-20_20h51.25.361,test3,2020.2.4,Win32,60,,,,,,,,,
,,,,z,4.880945,0,103,103,103,1,paints/images/10.jpg,paints/images/393.jpg,104,rajeev,1,2020-11-20_20h51.25.361,test3,2020.2.4,Win32,60,,,,,,,,,
,,,,z,4.42717,0,104,104,104,1,paints/images/378.jpg,paints/images/181.jpg,105,rajeev,1,2020-11-20_20h51.25.361,test3,2020.2.4,Win32,60,,,,,,,,,
,,,,z,1.86574,0,105,105,105,1,paints/images/303.jpg,paints/images/334.jpg,106,rajeev,1,2020-11-20_20h51.25.361,test3,2020.2.4,Win32,60,,,,,,,,,
,,,,m,1.362555,0,106,106,106,1,paints/images/328.jpg,paints/images/344.jpg,107,rajeev,1,2020-11-20_20h51.25.361,test3,2020.2.4,Win32,60,,,,,,,,,
,,,,z,1.802655,0,107,107,107,1,paints/images/397.jpg,paints/images/318.jpg,108,rajeev,1,2020-11-20_20h51.25.361,test3,2020.2.4,Win32,60,,,,,,,,,
,,,,m,4.8979,0,108,108,108,1,paints/images/365.jpg,paints/images/211.jpg,109,rajeev,1,2020-11-20_20h51.25.361,test3,2020.2.4,Win32,60,,,,,,,,,
,,,,m,1.94361,0,109,109,109,1,paints/images/23.jpg,paints/images/46.jpg,110,rajeev,1,2020-11-20_20h51.25.361,test3,2020.2.4,Win32,60,,,,,,,,,
,,,,z,1.30723,0,110,110,110,1,paints/images/304.jpg,paints/images/11.jpg,111,rajeev,1,2020-11-20_20h51.25.361,test3,2020.2.4,Win32,60,,,,,,,,,
,,,,z,4.512865,0,111,111,111,1,paints/images/226.jpg,paints/images/6.jpg,112,rajeev,1,2020-11-20_20h51.25.361,test3,2020.2.4,Win32,60,,,,,,,,,
,,,,z,1.32397,0,112,112,112,1,paints/images/170.jpg,paints/images/262.jpg,113,rajeev,1,2020-11-20_20h51.25.361,test3,2020.2.4,Win32,60,,,,,,,,,
,,,,m,1.42497,0,113,113,113,1,paints/images/259.jpg,paints/images/343.jpg,114,rajeev,1,2020-11-20_20h51.25.361,test3,2020.2.4,Win32,60,,,,,,,,,
,,,,z,5.14588,0,114,114,114,1,paints/images/19.jpg,paints/images/394.jpg,115,rajeev,1,2020-11-20_20h51.25.361,test3,2020.2.4,Win32,60,,,,,,,,,
,,,,z,4.58829,0,115,115,115,1,paints/images/215.jpg,paints/images/19.jpg,116,rajeev,1,2020-11-20_20h51.25.361,test3,2020.2.4,Win32,60,,,,,,,,,
,,,,z,3.06288,0,116,116,116,1,paints/images/52.jpg,paints/images/360.jpg,117,rajeev,1,2020-11-20_20h51.25.361,test3,2020.2.4,Win32,60,,,,,,,,,
,,,,m,1.959635,0,117,117,117,1,paints/images/99.jpg,paints/images/328.jpg,118,rajeev,1,2020-11-20_20h51.25.361,test3,2020.2.4,Win32,60,,,,,,,,,
,,,,m,3.72419,0,118,118,118,1,paints/images/150.jpg,paints/images/164.jpg,119,rajeev,1,2020-11-20_20h51.25.361,test3,2020.2.4,Win32,60,,,,,,,,,
,,,,m,1.247535,0,119,119,119,1,paints/images/172.jpg,paints/images/213.jpg,120,rajeev,1,2020-11-20_20h51.25.361,test3,2020.2.4,Win32,60,,,,,,,,,
,,,,m,3.331785,0,120,120,120,1,paints/images/50.jpg,paints/images/101.jpg,121,rajeev,1,2020-11-20_20h51.25.361,test3,2020.2.4,Win32,60,,,,,,,,,
,,,,m,1.78941,0,121,121,121,1,paints/images/358.jpg,paints/images/354.jpg,122,rajeev,1,2020-11-20_20h51.25.361,test3,2020.2.4,Win32,60,,,,,,,,,
,,,,m,7.24782,0,122,122,122,1,paints/images/257.jpg,paints/images/265.jpg,123,rajeev,1,2020-11-20_20h51.25.361,test3,2020.2.4,Win32,60,,,,,,,,,
,,,,z,4.42332,0,123,123,123,1,paints/images/91.jpg,paints/images/342.jpg,124,rajeev,1,2020-11-20_20h51.25.361,test3,2020.2.4,Win32,60,,,,,,,,,
,,,,z,2.14556,0,124,124,124,1,paints/images/168.jpg,paints/images/132.jpg,125,rajeev,1,2020-11-20_20h51.25.361,test3,2020.2.4,Win32,60,,,,,,,,,
,,,,z,2.5801,0,125,125,125,1,paints/images/280.jpg,paints/images/98.jpg,126,rajeev,1,2020-11-20_20h51.25.361,test3,2020.2.4,Win32,60,,,,,,,,,
,,,,z,1.926595,0,126,126,126,1,paints/images/261.jpg,paints/images/40.jpg,127,rajeev,1,2020-11-20_20h51.25.361,test3,2020.2.4,Win32,60,,,,,,,,,
,,,,m,2.177825,0,127,127,127,1,paints/images/333.jpg,paints/images/66.jpg,128,rajeev,1,2020-11-20_20h51.25.361,test3,2020.2.4,Win32,60,,,,,,,,,
,,,,m,4.50762,0,128,128,128,1,paints/images/96.jpg,paints/images/82.jpg,129,rajeev,1,2020-11-20_20h51.25.361,test3,2020.2.4,Win32,60,,,,,,,,,
,,,,m,3.105715,0,129,129,129,1,paints/images/32.jpg,paints/images/325.jpg,130,rajeev,1,2020-11-20_20h51.25.361,test3,2020.2.4,Win32,60,,,,,,,,,
,,,,m,1.72408,0,130,130,130,1,paints/images/268.jpg,paints/images/167.jpg,131,rajeev,1,2020-11-20_20h51.25.361,test3,2020.2.4,Win32,60,,,,,,,,,
,,,,z,4.207335,0,131,131,131,1,paints/images/162.jpg,paints/images/25.jpg,132,rajeev,1,2020-11-20_20h51.25.361,test3,2020.2.4,Win32,60,,,,,,,,,
,,,,z,2.243015,0,132,132,132,1,paints/images/53.jpg,paints/images/305.jpg,133,rajeev,1,2020-11-20_20h51.25.361,test3,2020.2.4,Win32,60,,,,,,,,,
,,,,z,2.93595,0,133,133,133,1,paints/images/263.jpg,paints/images/209.jpg,134,rajeev,1,2020-11-20_20h51.25.361,test3,2020.2.4,Win32,60,,,,,,,,,
,,,,z,3.997355,0,134,134,134,1,paints/images/92.jpg,paints/images/364.jpg,135,rajeev,1,2020-11-20_20h51.25.361,test3,2020.2.4,Win32,60,,,,,,,,,
,,,,z,10.30909,0,135,135,135,1,paints/images/61.jpg,paints/images/291.jpg,136,rajeev,1,2020-11-20_20h51.25.361,test3,2020.2.4,Win32,60,,,,,,,,,
,,,,z,5.6163,0,136,136,136,1,paints/images/293.jpg,paints/images/283.jpg,137,rajeev,1,2020-11-20_20h51.25.361,test3,2020.2.4,Win32,60,,,,,,,,,
,,,,z,3.0664,0,137,137,137,1,paints/images/229.jpg,paints/images/173.jpg,138,rajeev,1,2020-11-20_20h51.25.361,test3,2020.2.4,Win32,60,,,,,,,,,
,,,,m,1.44093,0,138,138,138,1,paints/images/41.jpg,paints/images/133.jpg,139,rajeev,1,2020-11-20_20h51.25.361,test3,2020.2.4,Win32,60,,,,,,,,,
,,,,z,3.460355,0,139,139,139,1,paints/images/182.jpg,paints/images/348.jpg,140,rajeev,1,2020-11-20_20h51.25.361,test3,2020.2.4,Win32,60,,,,,,,,,
,,,,z,2.65629,0,140,140,140,1,paints/images/379.jpg,paints/images/228.jpg,141,rajeev,1,2020-11-20_20h51.25.361,test3,2020.2.4,Win32,60,,,,,,,,,
,,,,m,2.463885,0,141,141,141,1,paints/images/188.jpg,paints/images/13.jpg,142,rajeev,1,2020-11-20_20h51.25.361,test3,2020.2.4,Win32,60,,,,,,,,,
,,,,m,8.404245,0,142,142,142,1,paints/images/40.jpg,paints/images/329.jpg,143,rajeev,1,2020-11-20_20h51.25.361,test3,2020.2.4,Win32,60,,,,,,,,,
,,,,z,5.063025,0,143,143,143,1,paints/images/323.jpg,paints/images/165.jpg,144,rajeev,1,2020-11-20_20h51.25.361,test3,2020.2.4,Win32,60,,,,,,,,,
,,,,z,2.157265,0,144,144,144,1,paints/images/78.jpg,paints/images/407.jpg,145,rajeev,1,2020-11-20_20h51.25.361,test3,2020.2.4,Win32,60,,,,,,,,,
,,,,z,3.50551,0,145,145,145,1,paints/images/242.jpg,paints/images/75.jpg,146,rajeev,1,2020-11-20_20h51.25.361,test3,2020.2.4,Win32,60,,,,,,,,,
,,,,z,10.868985,0,146,146,146,1,paints/images/62.jpg,paints/images/187.jpg,147,rajeev,1,2020-11-20_20h51.25.361,test3,2020.2.4,Win32,60,,,,,,,,,
,,,,z,1.713835,0,147,147,147,1,paints/images/131.jpg,paints/images/285.jpg,148,rajeev,1,2020-11-20_20h51.25.361,test3,2020.2.4,Win32,60,,,,,,,,,
,,,,z,5.368245,0,148,148,148,1,paints/images/241.jpg,paints/images/97.jpg,149,rajeev,1,2020-11-20_20h51.25.361,test3,2020.2.4,Win32,60,,,,,,,,,
,,,,m,1.13101,0,149,149,149,1,paints/images/132.jpg,paints/images/289.jpg,150,rajeev,1,2020-11-20_20h51.25.361,test3,2020.2.4,Win32,60,,,,,,,,,
,,,,m,2.81396,0,150,150,150,1,paints/images/185.jpg,paints/images/54.jpg,151,rajeev,1,2020-11-20_20h51.25.361,test3,2020.2.4,Win32,60,,,,,,,,,
,,,,m,1.208115,0,151,151,151,1,paints/images/272.jpg,paints/images/51.jpg,152,rajeev,1,2020-11-20_20h51.25.361,test3,2020.2.4,Win32,60,,,,,,,,,
,,,,z,6.825285,0,152,152,152,1,paints/images/403.jpg,paints/images/71.jpg,153,rajeev,1,2020-11-20_20h51.25.361,test3,2020.2.4,Win32,60,,,,,,,,,
,,,,m,1.635795,0,153,153,153,1,paints/images/202.jpg,paints/images/219.jpg,154,rajeev,1,2020-11-20_20h51.25.361,test3,2020.2.4,Win32,60,,,,,,,,,
,,,,m,5.7558,0,154,154,154,1,paints/images/34.jpg,paints/images/271.jpg,155,rajeev,1,2020-11-20_20h51.25.361,test3,2020.2.4,Win32,60,,,,,,,,,
,,,,m,1.74619,0,155,155,155,1,paints/images/296.jpg,paints/images/90.jpg,156,rajeev,1,2020-11-20_20h51.25.361,test3,2020.2.4,Win32,60,,,,,,,,,
,,,,m,4.920035,0,156,156,156,1,paints/images/25.jpg,paints/images/338.jpg,157,rajeev,1,2020-11-20_20h51.25.361,test3,2020.2.4,Win32,60,,,,,,,,,
,,,,z,2.1941,0,157,157,157,1,paints/images/396.jpg,paints/images/78.jpg,158,rajeev,1,2020-11-20_20h51.25.361,test3,2020.2.4,Win32,60,,,,,,,,,
,,,,m,2.39365,0,158,158,158,1,paints/images/72.jpg,paints/images/111.jpg,159,rajeev,1,2020-11-20_20h51.25.361,test3,2020.2.4,Win32,60,,,,,,,,,
,,,,z,3.77596,0,159,159,159,1,paints/images/164.jpg,paints/images/16.jpg,160,rajeev,1,2020-11-20_20h51.25.361,test3,2020.2.4,Win32,60,,,,,,,,,
,,,,m,5.03088,0,160,160,160,1,paints/images/387.jpg,paints/images/244.jpg,161,rajeev,1,2020-11-20_20h51.25.361,test3,2020.2.4,Win32,60,,,,,,,,,
,,,,z,1.900065,0,161,161,161,1,paints/images/64.jpg,paints/images/260.jpg,162,rajeev,1,2020-11-20_20h51.25.361,test3,2020.2.4,Win32,60,,,,,,,,,
,,,,z,5.547925,0,162,162,162,1,paints/images/160.jpg,paints/images/63.jpg,163,rajeev,1,2020-11-20_20h51.25.361,test3,2020.2.4,Win32,60,,,,,,,,,
,,,,z,1.627915,0,163,163,163,1,paints/images/3.jpg,paints/images/282.jpg,164,rajeev,1,2020-11-20_20h51.25.361,test3,2020.2.4,Win32,60,,,,,,,,,
,,,,m,3.35665,0,164,164,164,1,paints/images/307.jpg,paints/images/152.jpg,165,rajeev,1,2020-11-20_20h51.25.361,test3,2020.2.4,Win32,60,,,,,,,,,
,,,,z,3.381495,0,165,165,165,1,paints/images/311.jpg,paints/images/123.jpg,166,rajeev,1,2020-11-20_20h51.25.361,test3,2020.2.4,Win32,60,,,,,,,,,
,,,,z,2.78087,0,166,166,166,1,paints/images/143.jpg,paints/images/286.jpg,167,rajeev,1,2020-11-20_20h51.25.361,test3,2020.2.4,Win32,60,,,,,,,,,
,,,,m,3.582765,0,167,167,167,1,paints/images/97.jpg,paints/images/216.jpg,168,rajeev,1,2020-11-20_20h51.25.361,test3,2020.2.4,Win32,60,,,,,,,,,
,,,,m,3.47935,0,168,168,168,1,paints/images/395.jpg,paints/images/170.jpg,169,rajeev,1,2020-11-20_20h51.25.361,test3,2020.2.4,Win32,60,,,,,,,,,
,,,,m,1.973035,0,169,169,169,1,paints/images/151.jpg,paints/images/26.jpg,170,rajeev,1,2020-11-20_20h51.25.361,test3,2020.2.4,Win32,60,,,,,,,,,
,,,,m,1.445905,0,170,170,170,1,paints/images/51.jpg,paints/images/32.jpg,171,rajeev,1,2020-11-20_20h51.25.361,test3,2020.2.4,Win32,60,,,,,,,,,
,,,,m,1.6809,0,171,171,171,1,paints/images/305.jpg,paints/images/176.jpg,172,rajeev,1,2020-11-20_20h51.25.361,test3,2020.2.4,Win32,60,,,,,,,,,
,,,,z,2.548665,0,172,172,172,1,paints/images/137.jpg,paints/images/48.jpg,173,rajeev,1,2020-11-20_20h51.25.361,test3,2020.2.4,Win32,60,,,,,,,,,
,,,,z,2.641025,0,173,173,173,1,paints/images/65.jpg,paints/images/243.jpg,174,rajeev,1,2020-11-20_20h51.25.361,test3,2020.2.4,Win32,60,,,,,,,,,
,,,,m,3.165325,0,174,174,174,1,paints/images/115.jpg,paints/images/210.jpg,175,rajeev,1,2020-11-20_20h51.25.361,test3,2020.2.4,Win32,60,,,,,,,,,
,,,,z,2.866325,0,175,175,175,1,paints/images/310.jpg,paints/images/58.jpg,176,rajeev,1,2020-11-20_20h51.25.361,test3,2020.2.4,Win32,60,,,,,,,,,
,,,,z,3.75659,0,176,176,176,1,paints/images/1.jpg,paints/images/112.jpg,177,rajeev,1,2020-11-20_20h51.25.361,test3,2020.2.4,Win32,60,,,,,,,,,
,,,,z,2.71802,0,177,177,177,1,paints/images/125.jpg,paints/images/17.jpg,178,rajeev,1,2020-11-20_20h51.25.361,test3,2020.2.4,Win32,60,,,,,,,,,
,,,,m,3.10918,0,178,178,178,1,paints/images/279.jpg,paints/images/166.jpg,179,rajeev,1,2020-11-20_20h51.25.361,test3,2020.2.4,Win32,60,,,,,,,,,
,,,,z,2.54752,0,179,179,179,1,paints/images/316.jpg,paints/images/306.jpg,180,rajeev,1,2020-11-20_20h51.25.361,test3,2020.2.4,Win32,60,,,,,,,,,
,,,,z,3.728415,0,180,180,180,1,paints/images/22.jpg,paints/images/214.jpg,181,rajeev,1,2020-11-20_20h51.25.361,test3,2020.2.4,Win32,60,,,,,,,,,
,,,,z,2.361625,0,181,181,181,1,paints/images/54.jpg,paints/images/235.jpg,182,rajeev,1,2020-11-20_20h51.25.361,test3,2020.2.4,Win32,60,,,,,,,,,
,,,,z,2.03953,0,182,182,182,1,paints/images/225.jpg,paints/images/160.jpg,183,rajeev,1,2020-11-20_20h51.25.361,test3,2020.2.4,Win32,60,,,,,,,,,
,,,,m,1.480695,0,183,183,183,1,paints/images/339.jpg,paints/images/59.jpg,184,rajeev,1,2020-11-20_20h51.25.361,test3,2020.2.4,Win32,60,,,,,,,,,
,,,,m,3.849445,0,184,184,184,1,paints/images/409.jpg,paints/images/180.jpg,185,rajeev,1,2020-11-20_20h51.25.361,test3,2020.2.4,Win32,60,,,,,,,,,
,,,,z,2.902875,0,185,185,185,1,paints/images/145.jpg,paints/images/115.jpg,186,rajeev,1,2020-11-20_20h51.25.361,test3,2020.2.4,Win32,60,,,,,,,,,
,,,,z,7.02276,0,186,186,186,1,paints/images/147.jpg,paints/images/37.jpg,187,rajeev,1,2020-11-20_20h51.25.361,test3,2020.2.4,Win32,60,,,,,,,,,
,,,,m,1.042075,0,187,187,187,1,paints/images/288.jpg,paints/images/64.jpg,188,rajeev,1,2020-11-20_20h51.25.361,test3,2020.2.4,Win32,60,,,,,,,,,
,,,,z,3.506735,0,188,188,188,1,paints/images/235.jpg,paints/images/201.jpg,189,rajeev,1,2020-11-20_20h51.25.361,test3,2020.2.4,Win32,60,,,,,,,,,
,,,,m,2.284985,0,189,189,189,1,paints/images/313.jpg,paints/images/2.jpg,190,rajeev,1,2020-11-20_20h51.25.361,test3,2020.2.4,Win32,60,,,,,,,,,
,,,,m,1.584835,0,190,190,190,1,paints/images/329.jpg,paints/images/38.jpg,191,rajeev,1,2020-11-20_20h51.25.361,test3,2020.2.4,Win32,60,,,,,,,,,
,,,,z,2.287145,0,191,191,191,1,paints/images/9.jpg,paints/images/241.jpg,192,rajeev,1,2020-11-20_20h51.25.361,test3,2020.2.4,Win32,60,,,,,,,,,
,,,,m,1.057335,0,192,192,192,1,paints/images/364.jpg,paints/images/44.jpg,193,rajeev,1,2020-11-20_20h51.25.361,test3,2020.2.4,Win32,60,,,,,,,,,
,,,,m,2.774795,0,193,193,193,1,paints/images/14.jpg,paints/images/109.jpg,194,rajeev,1,2020-11-20_20h51.25.361,test3,2020.2.4,Win32,60,,,,,,,,,
,,,,z,1.903655,0,194,194,194,1,paints/images/0.jpg,paints/images/14.jpg,195,rajeev,1,2020-11-20_20h51.25.361,test3,2020.2.4,Win32,60,,,,,,,,,
,,,,m,2.376595,0,195,195,195,1,paints/images/398.jpg,paints/images/247.jpg,196,rajeev,1,2020-11-20_20h51.25.361,test3,2020.2.4,Win32,60,,,,,,,,,
,,,,m,2.431085,0,196,196,196,1,paints/images/377.jpg,paints/images/237.jpg,197,rajeev,1,2020-11-20_20h51.25.361,test3,2020.2.4,Win32,60,,,,,,,,,
,,,,z,2.24309,0,197,197,197,1,paints/images/246.jpg,paints/images/184.jpg,198,rajeev,1,2020-11-20_20h51.25.361,test3,2020.2.4,Win32,60,,,,,,,,,
,,,,m,4.498565,0,198,198,198,1,paints/images/299.jpg,paints/images/301.jpg,199,rajeev,1,2020-11-20_20h51.25.361,test3,2020.2.4,Win32,60,,,,,,,,,
,,,,z,4.5415,0,199,199,199,1,paints/images/116.jpg,paints/images/148.jpg,200,rajeev,1,2020-11-20_20h51.25.361,test3,2020.2.4,Win32,60,,,,,,,,,
,,,,m,5.767625,0,0,0,0,1,paints/images/267.jpg,paints/images/336.jpg,1,rajeev,1,2020-11-20_20h51.25.361,test3,2020.2.4,Win32,60,space,1.59351,m,5.767625,0,0,0,0,1
,,,,m,3.55467,0,1,1,1,1,paints/images/6.jpg,paints/images/182.jpg,2,rajeev,1,2020-11-20_20h51.25.361,test3,2020.2.4,Win32,60,,,m,3.55467,0,1,1,1,1
,,,,m,10.293285,0,2,2,2,1,paints/images/348.jpg,paints/images/105.jpg,3,rajeev,1,2020-11-20_20h51.25.361,test3,2020.2.4,Win32,60,,,m,10.293285,0,2,2,2,1
,,,,m,1.82362,0,3,3,3,1,paints/images/404.jpg,paints/images/372.jpg,4,rajeev,1,2020-11-20_20h51.25.361,test3,2020.2.4,Win32,60,,,m,1.82362,0,3,3,3,1
,,,,z,5.811565,0,4,4,4,1,paints/images/324.jpg,paints/images/134.jpg,5,rajeev,1,2020-11-20_20h51.25.361,test3,2020.2.4,Win32,60,,,z,5.811565,0,4,4,4,1
,,,,m,2.04695,0,5,5,5,1,paints/images/278.jpg,paints/images/269.jpg,6,rajeev,1,2020-11-20_20h51.25.361,test3,2020.2.4,Win32,60,,,m,2.04695,0,5,5,5,1
,,,,m,1.436375,0,6,6,6,1,paints/images/237.jpg,paints/images/375.jpg,7,rajeev,1,2020-11-20_20h51.25.361,test3,2020.2.4,Win32,60,,,m,1.436375,0,6,6,6,1
,,,,m,1.45815,0,7,7,7,1,paints/images/109.jpg,paints/images/224.jpg,8,rajeev,1,2020-11-20_20h51.25.361,test3,2020.2.4,Win32,60,,,m,1.45815,0,7,7,7,1
,,,,z,3.15986,0,8,8,8,1,paints/images/318.jpg,paints/images/127.jpg,9,rajeev,1,2020-11-20_20h51.25.361,test3,2020.2.4,Win32,60,,,z,3.15986,0,8,8,8,1
,,,,z,1.208345,0,9,9,9,1,paints/images/120.jpg,paints/images/254.jpg,10,rajeev,1,2020-11-20_20h51.25.361,test3,2020.2.4,Win32,60,,,z,1.208345,0,9,9,9,1
,,,,z,2.29427,0,10,10,10,1,paints/images/86.jpg,paints/images/67.jpg,11,rajeev,1,2020-11-20_20h51.25.361,test3,2020.2.4,Win32,60,,,z,2.29427,0,10,10,10,1
,,,,m,1.115245,0,11,11,11,1,paints/images/302.jpg,paints/images/245.jpg,12,rajeev,1,2020-11-20_20h51.25.361,test3,2020.2.4,Win32,60,,,m,1.115245,0,11,11,11,1
,,,,m,1.44355,0,12,12,12,1,paints/images/94.jpg,paints/images/242.jpg,13,rajeev,1,2020-11-20_20h51.25.361,test3,2020.2.4,Win32,60,,,m,1.44355,0,12,12,12,1
,,,,m,2.14464,0,13,13,13,1,paints/images/295.jpg,paints/images/72.jpg,14,rajeev,1,2020-11-20_20h51.25.361,test3,2020.2.4,Win32,60,,,m,2.14464,0,13,13,13,1
,,,,m,7.40575,0,14,14,14,1,paints/images/227.jpg,paints/images/175.jpg,15,rajeev,1,2020-11-20_20h51.25.361,test3,2020.2.4,Win32,60,,,m,7.40575,0,14,14,14,1
,,,,m,1.536535,0,15,15,15,1,paints/images/26.jpg,paints/images/203.jpg,16,rajeev,1,2020-11-20_20h51.25.361,test3,2020.2.4,Win32,60,,,m,1.536535,0,15,15,15,1
,,,,z,0.91661,0,16,16,16,1,paints/images/45.jpg,paints/images/272.jpg,17,rajeev,1,2020-11-20_20h51.25.361,test3,2020.2.4,Win32,60,,,z,0.91661,0,16,16,16,1
,,,,m,1.368505,0,17,17,17,1,paints/images/410.jpg,paints/images/185.jpg,18,rajeev,1,2020-11-20_20h51.25.361,test3,2020.2.4,Win32,60,,,m,1.368505,0,17,17,17,1
,,,,m,2.525015,0,18,18,18,1,paints/images/380.jpg,paints/images/0.jpg,19,rajeev,1,2020-11-20_20h51.25.361,test3,2020.2.4,Win32,60,,,m,2.525015,0,18,18,18,1
,,,,m,4.51221,0,19,19,19,1,paints/images/370.jpg,paints/images/106.jpg,20,rajeev,1,2020-11-20_20h51.25.361,test3,2020.2.4,Win32,60,,,m,4.51221,0,19,19,19,1
,,,,m,1.131725,0,20,20,20,1,paints/images/102.jpg,paints/images/309.jpg,21,rajeev,1,2020-11-20_20h51.25.361,test3,2020.2.4,Win32,60,,,m,1.131725,0,20,20,20,1
,,,,z,3.77786,0,21,21,21,1,paints/images/167.jpg,paints/images/299.jpg,22,rajeev,1,2020-11-20_20h51.25.361,test3,2020.2.4,Win32,60,,,z,3.77786,0,21,21,21,1
,,,,m,2.65908,0,22,22,22,1,paints/images/290.jpg,paints/images/192.jpg,23,rajeev,1,2020-11-20_20h51.25.361,test3,2020.2.4,Win32,60,,,m,2.65908,0,22,22,22,1
,,,,m,2.19124,0,23,23,23,1,paints/images/82.jpg,paints/images/353.jpg,24,rajeev,1,2020-11-20_20h51.25.361,test3,2020.2.4,Win32,60,,,m,2.19124,0,23,23,23,1
,,,,z,7.929455,0,24,24,24,1,paints/images/75.jpg,paints/images/404.jpg,25,rajeev,1,2020-11-20_20h51.25.361,test3,2020.2.4,Win32,60,,,z,7.929455,0,24,24,24,1
,,,,m,4.06005,0,25,25,25,1,paints/images/117.jpg,paints/images/100.jpg,26,rajeev,1,2020-11-20_20h51.25.361,test3,2020.2.4,Win32,60,,,m,4.06005,0,25,25,25,1
,,,,z,3.659875,0,26,26,26,1,paints/images/200.jpg,paints/images/378.jpg,27,rajeev,1,2020-11-20_20h51.25.361,test3,2020.2.4,Win32,60,,,z,3.659875,0,26,26,26,1
,,,,m,2.777035,0,27,27,27,1,paints/images/371.jpg,paints/images/57.jpg,28,rajeev,1,2020-11-20_20h51.25.361,test3,2020.2.4,Win32,60,,,m,2.777035,0,27,27,27,1
,,,,z,1.667135,0,28,28,28,1,paints/images/87.jpg,paints/images/302.jpg,29,rajeev,1,2020-11-20_20h51.25.361,test3,2020.2.4,Win32,60,,,z,1.667135,0,28,28,28,1
,,,,z,2.07605,0,29,29,29,1,paints/images/208.jpg,paints/images/39.jpg,30,rajeev,1,2020-11-20_20h51.25.361,test3,2020.2.4,Win32,60,,,z,2.07605,0,29,29,29,1
,,,,m,3.497055,0,30,30,30,1,paints/images/198.jpg,paints/images/200.jpg,31,rajeev,1,2020-11-20_20h51.25.361,test3,2020.2.4,Win32,60,,,m,3.497055,0,30,30,30,1
,,,,z,10.355485,0,31,31,31,1,paints/images/43.jpg,paints/images/42.jpg,32,rajeev,1,2020-11-20_20h51.25.361,test3,2020.2.4,Win32,60,,,z,10.355485,0,31,31,31,1
,,,,m,1.49853,0,32,32,32,1,paints/images/286.jpg,paints/images/376.jpg,33,rajeev,1,2020-11-20_20h51.25.361,test3,2020.2.4,Win32,60,,,m,1.49853,0,32,32,32,1
,,,,m,1.791465,0,33,33,33,1,paints/images/275.jpg,paints/images/76.jpg,34,rajeev,1,2020-11-20_20h51.25.361,test3,2020.2.4,Win32,60,,,m,1.791465,0,33,33,33,1
,,,,z,3.269375,0,34,34,34,1,paints/images/138.jpg,paints/images/129.jpg,35,rajeev,1,2020-11-20_20h51.25.361,test3,2020.2.4,Win32,60,,,z,3.269375,0,34,34,34,1
,,,,m,1.90585,0,35,35,35,1,paints/images/386.jpg,paints/images/366.jpg,36,rajeev,1,2020-11-20_20h51.25.361,test3,2020.2.4,Win32,60,,,m,1.90585,0,35,35,35,1
,,,,z,2.29222,0,36,36,36,1,paints/images/232.jpg,paints/images/215.jpg,37,rajeev,1,2020-11-20_20h51.25.361,test3,2020.2.4,Win32,60,,,z,2.29222,0,36,36,36,1
,,,,m,2.02841,0,37,37,37,1,paints/images/122.jpg,paints/images/199.jpg,38,rajeev,1,2020-11-20_20h51.25.361,test3,2020.2.4,Win32,60,,,m,2.02841,0,37,37,37,1
,,,,m,1.066805,0,38,38,38,1,paints/images/388.jpg,paints/images/169.jpg,39,rajeev,1,2020-11-20_20h51.25.361,test3,2020.2.4,Win32,60,,,m,1.066805,0,38,38,38,1
,,,,m,2.388825,0,39,39,39,1,paints/images/399.jpg,paints/images/229.jpg,40,rajeev,1,2020-11-20_20h51.25.361,test3,2020.2.4,Win32,60,,,m,2.388825,0,39,39,39,1
,,,,m,0.8891,0,40,40,40,1,paints/images/300.jpg,paints/images/1.jpg,41,rajeev,1,2020-11-20_20h51.25.361,test3,2020.2.4,Win32,60,,,m,0.8891,0,40,40,40,1
,,,,m,2.079735,0,41,41,41,1,paints/images/195.jpg,paints/images/399.jpg,42,rajeev,1,2020-11-20_20h51.25.361,test3,2020.2.4,Win32,60,,,m,2.079735,0,41,41,41,1
,,,,z,2.840575,0,42,42,42,1,paints/images/281.jpg,paints/images/277.jpg,43,rajeev,1,2020-11-20_20h51.25.361,test3,2020.2.4,Win32,60,,,z,2.840575,0,42,42,42,1
,,,,z,1.017835,0,43,43,43,1,paints/images/103.jpg,paints/images/288.jpg,44,rajeev,1,2020-11-20_20h51.25.361,test3,2020.2.4,Win32,60,,,z,1.017835,0,43,43,43,1
,,,,z,1.86511,0,44,44,44,1,paints/images/297.jpg,paints/images/222.jpg,45,rajeev,1,2020-11-20_20h51.25.361,test3,2020.2.4,Win32,60,,,z,1.86511,0,44,44,44,1
,,,,z,0.94928,0,45,45,45,1,paints/images/394.jpg,paints/images/258.jpg,46,rajeev,1,2020-11-20_20h51.25.361,test3,2020.2.4,Win32,60,,,z,0.94928,0,45,45,45,1
,,,,m,1.800725,0,46,46,46,1,paints/images/73.jpg,paints/images/49.jpg,47,rajeev,1,2020-11-20_20h51.25.361,test3,2020.2.4,Win32,60,,,m,1.800725,0,46,46,46,1
,,,,m,1.826325,0,47,47,47,1,paints/images/112.jpg,paints/images/80.jpg,48,rajeev,1,2020-11-20_20h51.25.361,test3,2020.2.4,Win32,60,,,m,1.826325,0,47,47,47,1
,,,,z,1.119975,0,48,48,48,1,paints/images/245.jpg,paints/images/358.jpg,49,rajeev,1,2020-11-20_20h51.25.361,test3,2020.2.4,Win32,60,,,z,1.119975,0,48,48,48,1
,,,,m,1.602765,0,49,49,49,1,paints/images/347.jpg,paints/images/143.jpg,50,rajeev,1,2020-11-20_20h51.25.361,test3,2020.2.4,Win32,60,,,m,1.602765,0,49,49,49,1
,,,,z,1.63556,0,50,50,50,1,paints/images/352.jpg,paints/images/145.jpg,51,rajeev,1,2020-11-20_20h51.25.361,test3,2020.2.4,Win32,60,,,z,1.63556,0,50,50,50,1
,,,,z,2.081205,0,51,51,51,1,paints/images/69.jpg,paints/images/162.jpg,52,rajeev,1,2020-11-20_20h51.25.361,test3,2020.2.4,Win32,60,,,z,2.081205,0,51,51,51,1
,,,,z,1.330325,0,52,52,52,1,paints/images/381.jpg,paints/images/202.jpg,53,rajeev,1,2020-11-20_20h51.25.361,test3,2020.2.4,Win32,60,,,z,1.330325,0,52,52,52,1
,,,,z,3.30347,0,53,53,53,1,paints/images/361.jpg,paints/images/340.jpg,54,rajeev,1,2020-11-20_20h51.25.361,test3,2020.2.4,Win32,60,,,z,3.30347,0,53,53,53,1
,,,,z,3.3698,0,54,54,54,1,paints/images/217.jpg,paints/images/9.jpg,55,rajeev,1,2020-11-20_20h51.25.361,test3,2020.2.4,Win32,60,,,z,3.3698,0,54,54,54,1
,,,,z,2.01775,0,55,55,55,1,paints/images/8.jpg,paints/images/409.jpg,56,rajeev,1,2020-11-20_20h51.25.361,test3,2020.2.4,Win32,60,,,z,2.01775,0,55,55,55,1
,,,,z,1.44226,0,56,56,56,1,paints/images/59.jpg,paints/images/33.jpg,57,rajeev,1,2020-11-20_20h51.25.361,test3,2020.2.4,Win32,60,,,z,1.44226,0,56,56,56,1
,,,,m,1.07422,0,57,57,57,1,paints/images/21.jpg,paints/images/311.jpg,58,rajeev,1,2020-11-20_20h51.25.361,test3,2020.2.4,Win32,60,,,m,1.07422,0,57,57,57,1
,,,,m,2.107985,0,58,58,58,1,paints/images/408.jpg,paints/images/31.jpg,59,rajeev,1,2020-11-20_20h51.25.361,test3,2020.2.4,Win32,60,,,m,2.107985,0,58,58,58,1
,,,,m,1.549795,0,59,59,59,1,paints/images/98.jpg,paints/images/3.jpg,60,rajeev,1,2020-11-20_20h51.25.361,test3,2020.2.4,Win32,60,,,m,1.549795,0,59,59,59,1
,,,,m,2.023355,0,60,60,60,1,paints/images/336.jpg,paints/images/138.jpg,61,rajeev,1,2020-11-20_20h51.25.361,test3,2020.2.4,Win32,60,,,m,2.023355,0,60,60,60,1
,,,,z,3.1973,0,61,61,61,1,paints/images/186.jpg,paints/images/395.jpg,62,rajeev,1,2020-11-20_20h51.25.361,test3,2020.2.4,Win32,60,,,z,3.1973,0,61,61,61,1
,,,,m,1.546715,0,62,62,62,1,paints/images/76.jpg,paints/images/405.jpg,63,rajeev,1,2020-11-20_20h51.25.361,test3,2020.2.4,Win32,60,,,m,1.546715,0,62,62,62,1
,,,,z,2.206955,0,63,63,63,1,paints/images/171.jpg,paints/images/381.jpg,64,rajeev,1,2020-11-20_20h51.25.361,test3,2020.2.4,Win32,60,,,z,2.206955,0,63,63,63,1
,,,,m,1.13885,0,64,64,64,1,paints/images/220.jpg,paints/images/70.jpg,65,rajeev,1,2020-11-20_20h51.25.361,test3,2020.2.4,Win32,60,,,m,1.13885,0,64,64,64,1
,,,,z,4.03224,0,65,65,65,1,paints/images/337.jpg,paints/images/339.jpg,66,rajeev,1,2020-11-20_20h51.25.361,test3,2020.2.4,Win32,60,,,z,4.03224,0,65,65,65,1
,,,,m,0.7616,0,66,66,66,1,paints/images/258.jpg,paints/images/85.jpg,67,rajeev,1,2020-11-20_20h51.25.361,test3,2020.2.4,Win32,60,,,m,0.7616,0,66,66,66,1
,,,,z,4.75817,0,67,67,67,1,paints/images/273.jpg,paints/images/113.jpg,68,rajeev,1,2020-11-20_20h51.25.361,test3,2020.2.4,Win32,60,,,z,4.75817,0,67,67,67,1
,,,,z,3.68158,0,68,68,68,1,paints/images/353.jpg,paints/images/368.jpg,69,rajeev,1,2020-11-20_20h51.25.361,test3,2020.2.4,Win32,60,,,z,3.68158,0,68,68,68,1
,,,,m,1.17593,0,69,69,69,1,paints/images/187.jpg,paints/images/86.jpg,70,rajeev,1,2020-11-20_20h51.25.361,test3,2020.2.4,Win32,60,,,m,1.17593,0,69,69,69,1
,,,,z,2.1177,0,70,70,70,1,paints/images/176.jpg,paints/images/193.jpg,71,rajeev,1,2020-11-20_20h51.25.361,test3,2020.2.4,Win32,60,,,z,2.1177,0,70,70,70,1
,,,,z,1.81136,0,71,71,71,1,paints/images/175.jpg,paints/images/194.jpg,72,rajeev,1,2020-11-20_20h51.25.361,test3,2020.2.4,Win32,60,,,z,1.81136,0,71,71,71,1
,,,,m,1.081845,0,72,72,72,1,paints/images/407.jpg,paints/images/81.jpg,73,rajeev,1,2020-11-20_20h51.25.361,test3,2020.2.4,Win32,60,,,m,1.081845,0,72,72,72,1
,,,,m,1.23326,0,73,73,73,1,paints/images/276.jpg,paints/images/77.jpg,74,rajeev,1,2020-11-20_20h51.25.361,test3,2020.2.4,Win32,60,,,m,1.23326,0,73,73,73,1
,,,,m,1.45474,0,74,74,74,1,paints/images/291.jpg,paints/images/314.jpg,75,rajeev,1,2020-11-20_20h51.25.361,test3,2020.2.4,Win32,60,,,m,1.45474,0,74,74,74,1
,,,,m,1.574465,0,75,75,75,1,paints/images/127.jpg,paints/images/36.jpg,76,rajeev,1,2020-11-20_20h51.25.361,test3,2020.2.4,Win32,60,,,m,1.574465,0,75,75,75,1
,,,,z,0.99437,0,76,76,76,1,paints/images/372.jpg,paints/images/161.jpg,77,rajeev,1,2020-11-20_20h51.25.361,test3,2020.2.4,Win32,60,,,z,0.99437,0,76,76,76,1
,,,,m,1.31932,0,77,77,77,1,paints/images/283.jpg,paints/images/350.jpg,78,rajeev,1,2020-11-20_20h51.25.361,test3,2020.2.4,Win32,60,,,m,1.31932,0,77,77,77,1
,,,,m,3.56543,0,78,78,78,1,paints/images/106.jpg,paints/images/68.jpg,79,rajeev,1,2020-11-20_20h51.25.361,test3,2020.2.4,Win32,60,,,m,3.56543,0,78,78,78,1
,,,,z,0.757735,0,79,79,79,1,paints/images/224.jpg,paints/images/266.jpg,80,rajeev,1,2020-11-20_20h51.25.361,test3,2020.2.4,Win32,60,,,z,0.757735,0,79,79,79,1
,,,,z,1.278475,0,80,80,80,1,paints/images/375.jpg,paints/images/264.jpg,81,rajeev,1,2020-11-20_20h51.25.361,test3,2020.2.4,Win32,60,,,z,1.278475,0,80,80,80,1
,,,,z,3.54121,0,81,81,81,1,paints/images/47.jpg,paints/images/87.jpg,82,rajeev,1,2020-11-20_20h51.25.361,test3,2020.2.4,Win32,60,,,z,3.54121,0,81,81,81,1
,,,,z,0.986745,0,82,82,82,1,paints/images/38.jpg,paints/images/298.jpg,83,rajeev,1,2020-11-20_20h51.25.361,test3,2020.2.4,Win32,60,,,z,0.986745,0,82,82,82,1
,,,,m,1.13305,0,83,83,83,1,paints/images/161.jpg,paints/images/28.jpg,84,rajeev,1,2020-11-20_20h51.25.361,test3,2020.2.4,Win32,60,,,m,1.13305,0,83,83,83,1
,,,,m,0.692895,0,84,84,84,1,paints/images/298.jpg,paints/images/345.jpg,85,rajeev,1,2020-11-20_20h51.25.361,test3,2020.2.4,Win32,60,,,m,0.692895,0,84,84,84,1
,,,,z,2.48817,0,85,85,85,1,paints/images/163.jpg,paints/images/205.jpg,86,rajeev,1,2020-11-20_20h51.25.361,test3,2020.2.4,Win32,60,,,z,2.48817,0,85,85,85,1
,,,,z,8.107795,0,86,86,86,1,paints/images/121.jpg,paints/images/252.jpg,87,rajeev,1,2020-11-20_20h51.25.361,test3,2020.2.4,Win32,60,,,z,8.107795,0,86,86,86,1
,,,,z,1.44901,0,87,87,87,1,paints/images/247.jpg,paints/images/95.jpg,88,rajeev,1,2020-11-20_20h51.25.361,test3,2020.2.4,Win32,60,,,z,1.44901,0,87,87,87,1
,,,,z,1.00813,0,88,88,88,1,paints/images/321.jpg,paints/images/150.jpg,89,rajeev,1,2020-11-20_20h51.25.361,test3,2020.2.4,Win32,60,,,z,1.00813,0,88,88,88,1
,,,,z,4.287185,0,89,89,89,1,paints/images/46.jpg,paints/images/226.jpg,90,rajeev,1,2020-11-20_20h51.25.361,test3,2020.2.4,Win32,60,,,z,4.287185,0,89,89,89,1
,,,,m,4.393115,0,90,90,90,1,paints/images/154.jpg,paints/images/263.jpg,91,rajeev,1,2020-11-20_20h51.25.361,test3,2020.2.4,Win32,60,,,m,4.393115,0,90,90,90,1
,,,,z,4.36272,0,91,91,91,1,paints/images/191.jpg,paints/images/158.jpg,92,rajeev,1,2020-11-20_20h51.25.361,test3,2020.2.4,Win32,60,,,z,4.36272,0,91,91,91,1
,,,,m,2.388265,0,92,92,92,1,paints/images/49.jpg,paints/images/227.jpg,93,rajeev,1,2020-11-20_20h51.25.361,test3,2020.2.4,Win32,60,,,m,2.388265,0,92,92,92,1
,,,,m,2.55715,0,93,93,93,1,paints/images/124.jpg,paints/images/89.jpg,94,rajeev,1,2020-11-20_20h51.25.361,test3,2020.2.4,Win32,60,,,m,2.55715,0,93,93,93,1
,,,,m,1.629525,0,94,94,94,1,paints/images/390.jpg,paints/images/43.jpg,95,rajeev,1,2020-11-20_20h51.25.361,test3,2020.2.4,Win32,60,,,m,1.629525,0,94,94,94,1
,,,,z,1.53147,0,95,95,95,1,paints/images/42.jpg,paints/images/268.jpg,96,rajeev,1,2020-11-20_20h51.25.361,test3,2020.2.4,Win32,60,,,z,1.53147,0,95,95,95,1
,,,,z,4.034875,0,96,96,96,1,paints/images/113.jpg,paints/images/386.jpg,97,rajeev,1,2020-11-20_20h51.25.361,test3,2020.2.4,Win32,60,,,z,4.034875,0,96,96,96,1
,,,,z,4.076615,0,97,97,97,1,paints/images/287.jpg,paints/images/307.jpg,98,rajeev,1,2020-11-20_20h51.25.361,test3,2020.2.4,Win32,60,,,z,4.076615,0,97,97,97,1
,,,,z,1.689225,0,98,98,98,1,paints/images/134.jpg,paints/images/300.jpg,99,rajeev,1,2020-11-20_20h51.25.361,test3,2020.2.4,Win32,60,,,z,1.689225,0,98,98,98,1
,,,,z,3.38952,0,99,99,99,1,paints/images/60.jpg,paints/images/206.jpg,100,rajeev,1,2020-11-20_20h51.25.361,test3,2020.2.4,Win32,60,,,z,3.38952,0,99,99,99,1
,,,,z,4.29113,0,100,100,100,1,paints/images/384.jpg,paints/images/335.jpg,101,rajeev,1,2020-11-20_20h51.25.361,test3,2020.2.4,Win32,60,,,z,4.29113,0,100,100,100,1
,,,,m,1.025545,0,101,101,101,1,paints/images/326.jpg,paints/images/139.jpg,102,rajeev,1,2020-11-20_20h51.25.361,test3,2020.2.4,Win32,60,,,m,1.025545,0,101,101,101,1
,,,,z,2.301965,0,102,102,102,1,paints/images/166.jpg,paints/images/374.jpg,103,rajeev,1,2020-11-20_20h51.25.361,test3,2020.2.4,Win32,60,,,z,2.301965,0,102,102,102,1
,,,,m,1.262515,0,103,103,103,1,paints/images/360.jpg,paints/images/10.jpg,104,rajeev,1,2020-11-20_20h51.25.361,test3,2020.2.4,Win32,60,,,m,1.262515,0,103,103,103,1
,,,,m,4.74966,0,104,104,104,1,paints/images/158.jpg,paints/images/149.jpg,105,rajeev,1,2020-11-20_20h51.25.361,test3,2020.2.4,Win32,60,,,m,4.74966,0,104,104,104,1
,,,,m,2.178415,0,105,105,105,1,paints/images/159.jpg,paints/images/362.jpg,106,rajeev,1,2020-11-20_20h51.25.361,test3,2020.2.4,Win32,60,,,m,2.178415,0,105,105,105,1
,,,,z,2.251195,0,106,106,106,1,paints/images/214.jpg,paints/images/116.jpg,107,rajeev,1,2020-11-20_20h51.25.361,test3,2020.2.4,Win32,60,,,z,2.251195,0,106,106,106,1
,,,,m,1.160395,0,107,107,107,1,paints/images/256.jpg,paints/images/323.jpg,108,rajeev,1,2020-11-20_20h51.25.361,test3,2020.2.4,Win32,60,,,m,1.160395,0,107,107,107,1
,,,,z,3.798205,0,108,108,108,1,paints/images/36.jpg,paints/images/157.jpg,109,rajeev,1,2020-11-20_20h51.25.361,test3,2020.2.4,Win32,60,,,z,3.798205,0,108,108,108,1
,,,,z,2.02519,0,109,109,109,1,paints/images/101.jpg,paints/images/126.jpg,110,rajeev,1,2020-11-20_20h51.25.361,test3,2020.2.4,Win32,60,,,z,2.02519,0,109,109,109,1
,,,,z,1.09012,0,110,110,110,1,paints/images/265.jpg,paints/images/35.jpg,111,rajeev,1,2020-11-20_20h51.25.361,test3,2020.2.4,Win32,60,,,z,1.09012,0,110,110,110,1
,,,,z,1.624825,0,111,111,111,1,paints/images/392.jpg,paints/images/233.jpg,112,rajeev,1,2020-11-20_20h51.25.361,test3,2020.2.4,Win32,60,,,z,1.624825,0,111,111,111,1
,,,,m,2.53808,0,112,112,112,1,paints/images/251.jpg,paints/images/12.jpg,113,rajeev,1,2020-11-20_20h51.25.361,test3,2020.2.4,Win32,60,,,m,2.53808,0,112,112,112,1
,,,,z,3.051215,0,113,113,113,1,paints/images/12.jpg,paints/images/144.jpg,114,rajeev,1,2020-11-20_20h51.25.361,test3,2020.2.4,Win32,60,,,z,3.051215,0,113,113,113,1
,,,,z,1.49514,0,114,114,114,1,paints/images/133.jpg,paints/images/331.jpg,115,rajeev,1,2020-11-20_20h51.25.361,test3,2020.2.4,Win32,60,,,z,1.49514,0,114,114,114,1
,,,,z,3.253265,0,115,115,115,1,paints/images/383.jpg,paints/images/99.jpg,116,rajeev,1,2020-11-20_20h51.25.361,test3,2020.2.4,Win32,60,,,z,3.253265,0,115,115,115,1
,,,,m,1.94144,0,116,116,116,1,paints/images/211.jpg,paints/images/303.jpg,117,rajeev,1,2020-11-20_20h51.25.361,test3,2020.2.4,Win32,60,,,m,1.94144,0,116,116,116,1
,,,,m,1.277895,0,117,117,117,1,paints/images/201.jpg,paints/images/238.jpg,118,rajeev,1,2020-11-20_20h51.25.361,test3,2020.2.4,Win32,60,,,m,1.277895,0,117,117,117,1
,,,,m,1.04611,0,118,118,118,1,paints/images/205.jpg,paints/images/102.jpg,119,rajeev,1,2020-11-20_20h51.25.361,test3,2020.2.4,Win32,60,,,m,1.04611,0,118,118,118,1
,,,,m,1.01487,0,119,119,119,1,paints/images/270.jpg,paints/images/322.jpg,120,rajeev,1,2020-11-20_20h51.25.361,test3,2020.2.4,Win32,60,,,m,1.01487,0,119,119,119,1
,,,,m,1.16561,0,120,120,120,1,paints/images/341.jpg,paints/images/248.jpg,121,rajeev,1,2020-11-20_20h51.25.361,test3,2020.2.4,Win32,60,,,m,1.16561,0,120,120,120,1
,,,,m,5.37415,0,121,121,121,1,paints/images/141.jpg,paints/images/94.jpg,122,rajeev,1,2020-11-20_20h51.25.361,test3,2020.2.4,Win32,60,,,m,5.37415,0,121,121,121,1
,,,,m,1.824755,0,122,122,122,1,paints/images/83.jpg,paints/images/327.jpg,123,rajeev,1,2020-11-20_20h51.25.361,test3,2020.2.4,Win32,60,,,m,1.824755,0,122,122,122,1
,,,,z,2.14011,0,123,123,123,1,paints/images/327.jpg,paints/images/110.jpg,124,rajeev,1,2020-11-20_20h51.25.361,test3,2020.2.4,Win32,60,,,z,2.14011,0,123,123,123,1
,,,,z,3.755765,0,124,124,124,1,paints/images/157.jpg,paints/images/79.jpg,125,rajeev,1,2020-11-20_20h51.25.361,test3,2020.2.4,Win32,60,,,z,3.755765,0,124,124,124,1
,,,,m,1.18136,0,125,125,125,1,paints/images/193.jpg,paints/images/74.jpg,126,rajeev,1,2020-11-20_20h51.25.361,test3,2020.2.4,Win32,60,,,m,1.18136,0,125,125,125,1
,,,,z,0.69448,0,126,126,126,1,paints/images/140.jpg,paints/images/292.jpg,127,rajeev,1,2020-11-20_20h51.25.361,test3,2020.2.4,Win32,60,,,z,0.69448,0,126,126,126,1
,,,,m,1.321775,0,127,127,127,1,paints/images/107.jpg,paints/images/92.jpg,128,rajeev,1,2020-11-20_20h51.25.361,test3,2020.2.4,Win32,60,,,m,1.321775,0,127,127,127,1
,,,,m,4.243035,0,128,128,128,1,paints/images/7.jpg,paints/images/56.jpg,129,rajeev,1,2020-11-20_20h51.25.361,test3,2020.2.4,Win32,60,,,m,4.243035,0,128,128,128,1
,,,,m,1.327855,0,129,129,129,1,paints/images/177.jpg,paints/images/141.jpg,130,rajeev,1,2020-11-20_20h51.25.361,test3,2020.2.4,Win32,60,,,m,1.327855,0,129,129,129,1
,,,,z,1.14188,0,130,130,130,1,paints/images/244.jpg,paints/images/250.jpg,131,rajeev,1,2020-11-20_20h51.25.361,test3,2020.2.4,Win32,60,,,z,1.14188,0,130,130,130,1
,,,,m,3.65619,0,131,131,131,1,paints/images/253.jpg,paints/images/8.jpg,132,rajeev,1,2020-11-20_20h51.25.361,test3,2020.2.4,Win32,60,,,m,3.65619,0,131,131,131,1
,,,,z,2.166205,0,132,132,132,1,paints/images/136.jpg,paints/images/108.jpg,133,rajeev,1,2020-11-20_20h51.25.361,test3,2020.2.4,Win32,60,,,z,2.166205,0,132,132,132,1
,,,,z,1.388755,0,133,133,133,1,paints/images/165.jpg,paints/images/147.jpg,134,rajeev,1,2020-11-20_20h51.25.361,test3,2020.2.4,Win32,60,,,z,1.388755,0,133,133,133,1
,,,,m,1.596475,0,134,134,134,1,paints/images/39.jpg,paints/images/387.jpg,135,rajeev,1,2020-11-20_20h51.25.361,test3,2020.2.4,Win32,60,,,m,1.596475,0,134,134,134,1
,,,,m,5.66387,0,135,135,135,1,paints/images/271.jpg,paints/images/125.jpg,136,rajeev,1,2020-11-20_20h51.25.361,test3,2020.2.4,Win32,60,,,m,5.66387,0,135,135,135,1
,,,,z,4.36372,0,136,136,136,1,paints/images/90.jpg,paints/images/130.jpg,137,rajeev,1,2020-11-20_20h51.25.361,test3,2020.2.4,Win32,60,,,z,4.36372,0,136,136,136,1
,,,,m,1.69205,0,137,137,137,1,paints/images/362.jpg,paints/images/60.jpg,138,rajeev,1,2020-11-20_20h51.25.361,test3,2020.2.4,Win32,60,,,m,1.69205,0,137,137,137,1
,,,,m,2.000095,0,138,138,138,1,paints/images/218.jpg,paints/images/153.jpg,139,rajeev,1,2020-11-20_20h51.25.361,test3,2020.2.4,Win32,60,,,m,2.000095,0,138,138,138,1
,,,,z,0.89685,0,139,139,139,1,paints/images/18.jpg,paints/images/324.jpg,140,rajeev,1,2020-11-20_20h51.25.361,test3,2020.2.4,Win32,60,,,z,0.89685,0,139,139,139,1
,,,,z,2.334455,0,140,140,140,1,paints/images/29.jpg,paints/images/120.jpg,141,rajeev,1,2020-11-20_20h51.25.361,test3,2020.2.4,Win32,60,,,z,2.334455,0,140,140,140,1
,,,,m,1.98604,0,141,141,141,1,paints/images/155.jpg,paints/images/142.jpg,142,rajeev,1,2020-11-20_20h51.25.361,test3,2020.2.4,Win32,60,,,m,1.98604,0,141,141,141,1
,,,,m,1.460905,0,142,142,142,1,paints/images/148.jpg,paints/images/396.jpg,143,rajeev,1,2020-11-20_20h51.25.361,test3,2020.2.4,Win32,60,,,m,1.460905,0,142,142,142,1
,,,,z,1.67589,0,143,143,143,1,paints/images/373.jpg,paints/images/218.jpg,144,rajeev,1,2020-11-20_20h51.25.361,test3,2020.2.4,Win32,60,,,z,1.67589,0,143,143,143,1
,,,,m,1.040505,0,144,144,144,1,paints/images/231.jpg,paints/images/73.jpg,145,rajeev,1,2020-11-20_20h51.25.361,test3,2020.2.4,Win32,60,,,m,1.040505,0,144,144,144,1
,,,,z,1.747885,0,145,145,145,1,paints/images/240.jpg,paints/images/356.jpg,146,rajeev,1,2020-11-20_20h51.25.361,test3,2020.2.4,Win32,60,,,z,1.747885,0,145,145,145,1
,,,,m,2.66656,0,146,146,146,1,paints/images/332.jpg,paints/images/347.jpg,147,rajeev,1,2020-11-20_20h51.25.361,test3,2020.2.4,Win32,60,,,m,2.66656,0,146,146,146,1
,,,,m,0.86979,0,147,147,147,1,paints/images/254.jpg,paints/images/310.jpg,148,rajeev,1,2020-11-20_20h51.25.361,test3,2020.2.4,Win32,60,,,m,0.86979,0,147,147,147,1
,,,,z,1.77231,0,148,148,148,1,paints/images/405.jpg,paints/images/385.jpg,149,rajeev,1,2020-11-20_20h51.25.361,test3,2020.2.4,Win32,60,,,z,1.77231,0,148,148,148,1
,,,,m,1.2623,0,149,149,149,1,paints/images/345.jpg,paints/images/274.jpg,150,rajeev,1,2020-11-20_20h51.25.361,test3,2020.2.4,Win32,60,,,m,1.2623,0,149,149,149,1
,,,,m,2.675995,0,150,150,150,1,paints/images/363.jpg,paints/images/18.jpg,151,rajeev,1,2020-11-20_20h51.25.361,test3,2020.2.4,Win32,60,,,m,2.675995,0,150,150,150,1
,,,,m,2.825485,0,151,151,151,1,paints/images/37.jpg,paints/images/53.jpg,152,rajeev,1,2020-11-20_20h51.25.361,test3,2020.2.4,Win32,60,,,m,2.825485,0,151,151,151,1
,,,,m,2.513535,0,152,152,152,1,paints/images/315.jpg,paints/images/319.jpg,153,rajeev,1,2020-11-20_20h51.25.361,test3,2020.2.4,Win32,60,,,m,2.513535,0,152,152,152,1
,,,,z,1.850205,0,153,153,153,1,paints/images/74.jpg,paints/images/403.jpg,154,rajeev,1,2020-11-20_20h51.25.361,test3,2020.2.4,Win32,60,,,z,1.850205,0,153,153,153,1
,,,,m,1.34215,0,154,154,154,1,paints/images/156.jpg,paints/images/246.jpg,155,rajeev,1,2020-11-20_20h51.25.361,test3,2020.2.4,Win32,60,,,m,1.34215,0,154,154,154,1
,,,,z,1.429675,0,155,155,155,1,paints/images/285.jpg,paints/images/270.jpg,156,rajeev,1,2020-11-20_20h51.25.361,test3,2020.2.4,Win32,60,,,z,1.429675,0,155,155,155,1
,,,,m,1.25865,0,156,156,156,1,paints/images/17.jpg,paints/images/398.jpg,157,rajeev,1,2020-11-20_20h51.25.361,test3,2020.2.4,Win32,60,,,m,1.25865,0,156,156,156,1
,,,,z,1.782375,0,157,157,157,1,paints/images/335.jpg,paints/images/27.jpg,158,rajeev,1,2020-11-20_20h51.25.361,test3,2020.2.4,Win32,60,,,z,1.782375,0,157,157,157,1
,,,,z,1.41134,0,158,158,158,1,paints/images/350.jpg,paints/images/156.jpg,159,rajeev,1,2020-11-20_20h51.25.361,test3,2020.2.4,Win32,60,,,z,1.41134,0,158,158,158,1
,,,,z,1.86462,0,159,159,159,1,paints/images/31.jpg,paints/images/231.jpg,160,rajeev,1,2020-11-20_20h51.25.361,test3,2020.2.4,Win32,60,,,z,1.86462,0,159,159,159,1
,,,,m,3.50134,0,160,160,160,1,paints/images/114.jpg,paints/images/333.jpg,161,rajeev,1,2020-11-20_20h51.25.361,test3,2020.2.4,Win32,60,,,m,3.50134,0,160,160,160,1
,,,,z,1.77186,0,161,161,161,1,paints/images/79.jpg,paints/images/408.jpg,162,rajeev,1,2020-11-20_20h51.25.361,test3,2020.2.4,Win32,60,,,z,1.77186,0,161,161,161,1
,,,,z,2.11719,0,162,162,162,1,paints/images/338.jpg,paints/images/279.jpg,163,rajeev,1,2020-11-20_20h51.25.361,test3,2020.2.4,Win32,60,,,z,2.11719,0,162,162,162,1
,,,,m,1.435305,0,163,163,163,1,paints/images/354.jpg,paints/images/304.jpg,164,rajeev,1,2020-11-20_20h51.25.361,test3,2020.2.4,Win32,60,,,m,1.435305,0,163,163,163,1
,,,,z,0.971505,0,164,164,164,1,paints/images/128.jpg,paints/images/276.jpg,165,rajeev,1,2020-11-20_20h51.25.361,test3,2020.2.4,Win32,60,,,z,0.971505,0,164,164,164,1
,,,,m,1.10131,0,165,165,165,1,paints/images/35.jpg,paints/images/188.jpg,166,rajeev,1,2020-11-20_20h51.25.361,test3,2020.2.4,Win32,60,,,m,1.10131,0,165,165,165,1
,,,,m,1.60282,0,166,166,166,1,paints/images/16.jpg,paints/images/29.jpg,167,rajeev,1,2020-11-20_20h51.25.361,test3,2020.2.4,Win32,60,,,m,1.60282,0,166,166,166,1
,,,,m,3.54314,0,167,167,167,1,paints/images/119.jpg,paints/images/251.jpg,168,rajeev,1,2020-11-20_20h51.25.361,test3,2020.2.4,Win32,60,,,m,3.54314,0,167,167,167,1
,,,,m,1.05888,0,168,168,168,1,paints/images/207.jpg,paints/images/65.jpg,169,rajeev,1,2020-11-20_20h51.25.361,test3,2020.2.4,Win32,60,,,m,1.05888,0,168,168,168,1
,,,,m,1.874705,0,169,169,169,1,paints/images/173.jpg,paints/images/373.jpg,170,rajeev,1,2020-11-20_20h51.25.361,test3,2020.2.4,Win32,60,,,m,1.874705,0,169,169,169,1
,,,,z,0.978355,0,170,170,170,1,paints/images/135.jpg,paints/images/196.jpg,171,rajeev,1,2020-11-20_20h51.25.361,test3,2020.2.4,Win32,60,,,z,0.978355,0,170,170,170,1
,,,,m,3.89099,0,171,171,171,1,paints/images/55.jpg,paints/images/316.jpg,172,rajeev,1,2020-11-20_20h51.25.361,test3,2020.2.4,Win32,60,,,m,3.89099,0,171,171,171,1
,,,,m,1.198535,0,172,172,172,1,paints/images/343.jpg,paints/images/383.jpg,173,rajeev,1,2020-11-20_20h51.25.361,test3,2020.2.4,Win32,60,,,m,1.198535,0,172,172,172,1
,,,,m,2.44009,0,173,173,173,1,paints/images/203.jpg,paints/images/186.jpg,174,rajeev,1,2020-11-20_20h51.25.361,test3,2020.2.4,Win32,60,,,m,2.44009,0,173,173,173,1
,,,,z,2.708765,0,174,174,174,1,paints/images/123.jpg,paints/images/128.jpg,175,rajeev,1,2020-11-20_20h51.25.361,test3,2020.2.4,Win32,60,,,z,2.708765,0,174,174,174,1
,,,,z,1.34262,0,175,175,175,1,paints/images/391.jpg,paints/images/208.jpg,176,rajeev,1,2020-11-20_20h51.25.361,test3,2020.2.4,Win32,60,,,z,1.34262,0,175,175,175,1
,,,,z,1.74132,0,176,176,176,1,paints/images/105.jpg,paints/images/313.jpg,177,rajeev,1,2020-11-20_20h51.25.361,test3,2020.2.4,Win32,60,,,z,1.74132,0,176,176,176,1
,,,,m,1.279015,0,177,177,177,1,paints/images/184.jpg,paints/images/69.jpg,178,rajeev,1,2020-11-20_20h51.25.361,test3,2020.2.4,Win32,60,,,m,1.279015,0,177,177,177,1
,,,,m,4.237855,0,178,178,178,1,paints/images/63.jpg,paints/images/191.jpg,179,rajeev,1,2020-11-20_20h51.25.361,test3,2020.2.4,Win32,60,,,m,4.237855,0,178,178,178,1
,,,,z,1.021665,0,179,179,179,1,paints/images/85.jpg,paints/images/390.jpg,180,rajeev,1,2020-11-20_20h51.25.361,test3,2020.2.4,Win32,60,,,z,1.021665,0,179,179,179,1
,,,,m,1.21518,0,180,180,180,1,paints/images/179.jpg,paints/images/177.jpg,181,rajeev,1,2020-11-20_20h51.25.361,test3,2020.2.4,Win32,60,,,m,1.21518,0,180,180,180,1
,,,,m,1.39508,0,181,181,181,1,paints/images/320.jpg,paints/images/171.jpg,182,rajeev,1,2020-11-20_20h51.25.361,test3,2020.2.4,Win32,60,,,m,1.39508,0,181,181,181,1
,,,,z,1.299775,0,182,182,182,1,paints/images/77.jpg,paints/images/406.jpg,183,rajeev,1,2020-11-20_20h51.25.361,test3,2020.2.4,Win32,60,,,z,1.299775,0,182,182,182,1
,,,,z,0.89962,0,183,183,183,1,paints/images/66.jpg,paints/images/255.jpg,184,rajeev,1,2020-11-20_20h51.25.361,test3,2020.2.4,Win32,60,,,z,0.89962,0,183,183,183,1
,,,,m,1.007665,0,184,184,184,1,paints/images/308.jpg,paints/images/41.jpg,185,rajeev,1,2020-11-20_20h51.25.361,test3,2020.2.4,Win32,60,,,m,1.007665,0,184,184,184,1
,,,,m,0.787005,0,185,185,185,1,paints/images/260.jpg,paints/images/297.jpg,186,rajeev,1,2020-11-20_20h51.25.361,test3,2020.2.4,Win32,60,,,m,0.787005,0,185,185,185,1
,,,,m,3.15696,0,186,186,186,1,paints/images/126.jpg,paints/images/273.jpg,187,rajeev,1,2020-11-20_20h51.25.361,test3,2020.2.4,Win32,60,,,m,3.15696,0,186,186,186,1
,,,,z,2.320145,0,187,187,187,1,paints/images/68.jpg,paints/images/189.jpg,188,rajeev,1,2020-11-20_20h51.25.361,test3,2020.2.4,Win32,60,,,z,2.320145,0,187,187,187,1
,,,,m,1.271985,0,188,188,188,1,paints/images/144.jpg,paints/images/280.jpg,189,rajeev,1,2020-11-20_20h51.25.361,test3,2020.2.4,Win32,60,,,m,1.271985,0,188,188,188,1
,,,,z,2.61326,0,189,189,189,1,paints/images/24.jpg,paints/images/389.jpg,190,rajeev,1,2020-11-20_20h51.25.361,test3,2020.2.4,Win32,60,,,z,2.61326,0,189,189,189,1
,,,,z,1.12126,0,190,190,190,1,paints/images/222.jpg,paints/images/7.jpg,191,rajeev,1,2020-11-20_20h51.25.361,test3,2020.2.4,Win32,60,,,z,1.12126,0,190,190,190,1
,,,,m,3.333005,0,191,191,191,1,paints/images/282.jpg,paints/images/278.jpg,192,rajeev,1,2020-11-20_20h51.25.361,test3,2020.2.4,Win32,60,,,m,3.333005,0,191,191,191,1
,,,,m,2.444485,0,192,192,192,1,paints/images/190.jpg,paints/images/61.jpg,193,rajeev,1,2020-11-20_20h51.25.361,test3,2020.2.4,Win32,60,,,m,2.444485,0,192,192,192,1
,,,,z,2.00268,0,193,193,193,1,paints/images/212.jpg,paints/images/402.jpg,194,rajeev,1,2020-11-20_20h51.25.361,test3,2020.2.4,Win32,60,,,z,2.00268,0,193,193,193,1
,,,,z,1.2818,0,194,194,194,1,paints/images/80.jpg,paints/images/410.jpg,195,rajeev,1,2020-11-20_20h51.25.361,test3,2020.2.4,Win32,60,,,z,1.2818,0,194,194,194,1
,,,,z,1.178265,0,195,195,195,1,paints/images/252.jpg,paints/images/382.jpg,196,rajeev,1,2020-11-20_20h51.25.361,test3,2020.2.4,Win32,60,,,z,1.178265,0,195,195,195,1
,,,,m,6.217825,0,196,196,196,1,paints/images/71.jpg,paints/images/337.jpg,197,rajeev,1,2020-11-20_20h51.25.361,test3,2020.2.4,Win32,60,,,m,6.217825,0,196,196,196,1
,,,,m,0.985785,0,197,197,197,1,paints/images/264.jpg,paints/images/118.jpg,198,rajeev,1,2020-11-20_20h51.25.361,test3,2020.2.4,Win32,60,,,m,0.985785,0,197,197,197,1
,,,,m,1.514115,0,198,198,198,1,paints/images/180.jpg,paints/images/357.jpg,199,rajeev,1,2020-11-20_20h51.25.361,test3,2020.2.4,Win32,60,,,m,1.514115,0,198,198,198,1
,,,,z,1.006355,0,199,199,199,1,paints/images/357.jpg,paints/images/15.jpg,200,rajeev,1,2020-11-20_20h51.25.361,test3,2020.2.4,Win32,60,,,z,1.006355,0,199,199,199,1
,,,,z,2.768225,0,200,200,200,1,paints/images/401.jpg,paints/images/220.jpg,201,rajeev,1,2020-11-20_20h51.25.361,test3,2020.2.4,Win32,60,,,z,2.768225,0,200,200,200,1
,,,,z,1.20116,0,201,201,201,1,paints/images/95.jpg,paints/images/135.jpg,202,rajeev,1,2020-11-20_20h51.25.361,test3,2020.2.4,Win32,60,,,z,1.20116,0,201,201,201,1
,,,,m,1.53598,0,202,202,202,1,paints/images/152.jpg,paints/images/234.jpg,203,rajeev,1,2020-11-20_20h51.25.361,test3,2020.2.4,Win32,60,,,m,1.53598,0,202,202,202,1
,,,,m,3.07597,0,203,203,203,1,paints/images/30.jpg,paints/images/88.jpg,204,rajeev,1,2020-11-20_20h51.25.361,test3,2020.2.4,Win32,60,,,m,3.07597,0,203,203,203,1
,,,,m,1.527665,0,204,204,204,1,paints/images/194.jpg,paints/images/392.jpg,205,rajeev,1,2020-11-20_20h51.25.361,test3,2020.2.4,Win32,60,,,m,1.527665,0,204,204,204,1
,,,,z,4.18848,0,205,205,205,1,paints/images/351.jpg,paints/images/103.jpg,206,rajeev,1,2020-11-20_20h51.25.361,test3,2020.2.4,Win32,60,,,z,4.18848,0,205,205,205,1
,,,,z,1.34247,0,206,206,206,1,paints/images/236.jpg,paints/images/369.jpg,207,rajeev,1,2020-11-20_20h51.25.361,test3,2020.2.4,Win32,60,,,z,1.34247,0,206,206,206,1
,,,,m,1.24966,0,207,207,207,1,paints/images/219.jpg,paints/images/136.jpg,208,rajeev,1,2020-11-20_20h51.25.361,test3,2020.2.4,Win32,60,,,m,1.24966,0,207,207,207,1
,,,,m,1.29749,0,208,208,208,1,paints/images/306.jpg,paints/images/239.jpg,209,rajeev,1,2020-11-20_20h51.25.361,test3,2020.2.4,Win32,60,,,m,1.29749,0,208,208,208,1
,,,,z,2.25707,0,209,209,209,1,paints/images/108.jpg,paints/images/259.jpg,210,rajeev,1,2020-11-20_20h51.25.361,test3,2020.2.4,Win32,60,,,z,2.25707,0,209,209,209,1
,,,,z,2.482665,0,210,210,210,1,paints/images/210.jpg,paints/images/30.jpg,211,rajeev,1,2020-11-20_20h51.25.361,test3,2020.2.4,Win32,60,,,z,2.482665,0,210,210,210,1
