key_resp.keys,key_resp.rt,key_resp_3.keys,key_resp_3.rt,key_resp_2.keys,key_resp_2.rt,trials.thisRepN,trials.thisTrialN,trials.thisN,trials.thisIndex,trials.ran,image_left,image_right,trial_num,participant,session,date,expName,psychopyVersion,OS,frameRate,key_resp_5.keys,key_resp_5.rt,key_resp_4.keys,key_resp_4.rt,trials_2.thisRepN,trials_2.thisTrialN,trials_2.thisN,trials_2.thisIndex,trials_2.ran
space,5.204955,space,1.894875,m,5.09157,0,0,0,0,1,paints/images/344.jpg,paints/images/121.jpg,1,Reighlyn,1,2020-11-20_15h26.21.828,test3,2020.2.4,MacIntel,60,,,,,,,,,
,,,,z,1.59193,0,1,1,1,1,paints/images/369.jpg,paints/images/367.jpg,2,Reighlyn,1,2020-11-20_15h26.21.828,test3,2020.2.4,MacIntel,60,,,,,,,,,
,,,,m,2.122825,0,2,2,2,1,paints/images/385.jpg,paints/images/253.jpg,3,Reighlyn,1,2020-11-20_15h26.21.828,test3,2020.2.4,MacIntel,60,,,,,,,,,
,,,,m,1.51676,0,3,3,3,1,paints/images/230.jpg,paints/images/124.jpg,4,Reighlyn,1,2020-11-20_15h26.21.828,test3,2020.2.4,MacIntel,60,,,,,,,,,
,,,,m,4.15596,0,4,4,4,1,paints/images/284.jpg,paints/images/172.jpg,5,Reighlyn,1,2020-11-20_15h26.21.828,test3,2020.2.4,MacIntel,60,,,,,,,,,
,,,,m,1.049285,0,5,5,5,1,paints/images/325.jpg,paints/images/5.jpg,6,Reighlyn,1,2020-11-20_15h26.21.828,test3,2020.2.4,MacIntel,60,,,,,,,,,
,,,,m,2.050345,0,6,6,6,1,paints/images/2.jpg,paints/images/107.jpg,7,Reighlyn,1,2020-11-20_15h26.21.828,test3,2020.2.4,MacIntel,60,,,,,,,,,
,,,,m,1.800255,0,7,7,7,1,paints/images/330.jpg,paints/images/93.jpg,8,Reighlyn,1,2020-11-20_15h26.21.828,test3,2020.2.4,MacIntel,60,,,,,,,,,
,,,,z,1.133135,0,8,8,8,1,paints/images/197.jpg,paints/images/20.jpg,9,Reighlyn,1,2020-11-20_15h26.21.828,test3,2020.2.4,MacIntel,60,,,,,,,,,
,,,,z,1.352805,0,9,9,9,1,paints/images/233.jpg,paints/images/346.jpg,10,Reighlyn,1,2020-11-20_15h26.21.828,test3,2020.2.4,MacIntel,60,,,,,,,,,
,,,,z,1.541375,0,10,10,10,1,paints/images/289.jpg,paints/images/317.jpg,11,Reighlyn,1,2020-11-20_15h26.21.828,test3,2020.2.4,MacIntel,60,,,,,,,,,
,,,,z,1.152265,0,11,11,11,1,paints/images/189.jpg,paints/images/230.jpg,12,Reighlyn,1,2020-11-20_15h26.21.828,test3,2020.2.4,MacIntel,60,,,,,,,,,
,,,,m,1.050605,0,12,12,12,1,paints/images/28.jpg,paints/images/401.jpg,13,Reighlyn,1,2020-11-20_15h26.21.828,test3,2020.2.4,MacIntel,60,,,,,,,,,
,,,,m,1.340875,0,13,13,13,1,paints/images/183.jpg,paints/images/198.jpg,14,Reighlyn,1,2020-11-20_15h26.21.828,test3,2020.2.4,MacIntel,60,,,,,,,,,
,,,,m,1.31863,0,14,14,14,1,paints/images/223.jpg,paints/images/249.jpg,15,Reighlyn,1,2020-11-20_15h26.21.828,test3,2020.2.4,MacIntel,60,,,,,,,,,
,,,,m,2.31959,0,15,15,15,1,paints/images/331.jpg,paints/images/168.jpg,16,Reighlyn,1,2020-11-20_15h26.21.828,test3,2020.2.4,MacIntel,60,,,,,,,,,
,,,,z,1.33227,0,16,16,16,1,paints/images/129.jpg,paints/images/21.jpg,17,Reighlyn,1,2020-11-20_15h26.21.828,test3,2020.2.4,MacIntel,60,,,,,,,,,
,,,,m,1.367755,0,17,17,17,1,paints/images/250.jpg,paints/images/290.jpg,18,Reighlyn,1,2020-11-20_15h26.21.828,test3,2020.2.4,MacIntel,60,,,,,,,,,
,,,,z,1.439005,0,18,18,18,1,paints/images/342.jpg,paints/images/371.jpg,19,Reighlyn,1,2020-11-20_15h26.21.828,test3,2020.2.4,MacIntel,60,,,,,,,,,
,,,,m,1.09281,0,19,19,19,1,paints/images/312.jpg,paints/images/349.jpg,20,Reighlyn,1,2020-11-20_15h26.21.828,test3,2020.2.4,MacIntel,60,,,,,,,,,
,,,,m,1.4046,0,20,20,20,1,paints/images/44.jpg,paints/images/23.jpg,21,Reighlyn,1,2020-11-20_15h26.21.828,test3,2020.2.4,MacIntel,60,,,,,,,,,
,,,,m,0.90283,0,21,21,21,1,paints/images/209.jpg,paints/images/236.jpg,22,Reighlyn,1,2020-11-20_15h26.21.828,test3,2020.2.4,MacIntel,60,,,,,,,,,
,,,,m,1.383915,0,22,22,22,1,paints/images/314.jpg,paints/images/326.jpg,23,Reighlyn,1,2020-11-20_15h26.21.828,test3,2020.2.4,MacIntel,60,,,,,,,,,
,,,,z,1.069535,0,23,23,23,1,paints/images/374.jpg,paints/images/397.jpg,24,Reighlyn,1,2020-11-20_15h26.21.828,test3,2020.2.4,MacIntel,60,,,,,,,,,
,,,,z,1.94973,0,24,24,24,1,paints/images/355.jpg,paints/images/400.jpg,25,Reighlyn,1,2020-11-20_15h26.21.828,test3,2020.2.4,MacIntel,60,,,,,,,,,
,,,,m,1.111565,0,25,25,25,1,paints/images/346.jpg,paints/images/223.jpg,26,Reighlyn,1,2020-11-20_15h26.21.828,test3,2020.2.4,MacIntel,60,,,,,,,,,
,,,,m,1.43395,0,26,26,26,1,paints/images/292.jpg,paints/images/122.jpg,27,Reighlyn,1,2020-11-20_15h26.21.828,test3,2020.2.4,MacIntel,60,,,,,,,,,
,,,,z,2.086445,0,27,27,27,1,paints/images/81.jpg,paints/images/294.jpg,28,Reighlyn,1,2020-11-20_15h26.21.828,test3,2020.2.4,MacIntel,60,,,,,,,,,
,,,,z,1.9664,0,28,28,28,1,paints/images/359.jpg,paints/images/370.jpg,29,Reighlyn,1,2020-11-20_15h26.21.828,test3,2020.2.4,MacIntel,60,,,,,,,,,
,,,,m,1.48439,0,29,29,29,1,paints/images/88.jpg,paints/images/119.jpg,30,Reighlyn,1,2020-11-20_15h26.21.828,test3,2020.2.4,MacIntel,60,,,,,,,,,
,,,,z,1.87112,0,30,30,30,1,paints/images/178.jpg,paints/images/47.jpg,31,Reighlyn,1,2020-11-20_15h26.21.828,test3,2020.2.4,MacIntel,60,,,,,,,,,
,,,,m,1.02845,0,31,31,31,1,paints/images/139.jpg,paints/images/377.jpg,32,Reighlyn,1,2020-11-20_15h26.21.828,test3,2020.2.4,MacIntel,60,,,,,,,,,
,,,,z,1.08185,0,32,32,32,1,paints/images/142.jpg,paints/images/379.jpg,33,Reighlyn,1,2020-11-20_15h26.21.828,test3,2020.2.4,MacIntel,60,,,,,,,,,
,,,,z,1.147905,0,33,33,33,1,paints/images/366.jpg,paints/images/22.jpg,34,Reighlyn,1,2020-11-20_15h26.21.828,test3,2020.2.4,MacIntel,60,,,,,,,,,
,,,,m,1.29028,0,34,34,34,1,paints/images/277.jpg,paints/images/365.jpg,35,Reighlyn,1,2020-11-20_15h26.21.828,test3,2020.2.4,MacIntel,60,,,,,,,,,
,,,,m,2.44296,0,35,35,35,1,paints/images/406.jpg,paints/images/388.jpg,36,Reighlyn,1,2020-11-20_15h26.21.828,test3,2020.2.4,MacIntel,60,,,,,,,,,
,,,,m,1.518675,0,36,36,36,1,paints/images/389.jpg,paints/images/104.jpg,37,Reighlyn,1,2020-11-20_15h26.21.828,test3,2020.2.4,MacIntel,60,,,,,,,,,
,,,,m,1.36024,0,37,37,37,1,paints/images/20.jpg,paints/images/84.jpg,38,Reighlyn,1,2020-11-20_15h26.21.828,test3,2020.2.4,MacIntel,60,,,,,,,,,
,,,,m,1.717715,0,38,38,38,1,paints/images/169.jpg,paints/images/163.jpg,39,Reighlyn,1,2020-11-20_15h26.21.828,test3,2020.2.4,MacIntel,60,,,,,,,,,
,,,,m,4.551305,0,39,39,39,1,paints/images/58.jpg,paints/images/359.jpg,40,Reighlyn,1,2020-11-20_15h26.21.828,test3,2020.2.4,MacIntel,60,,,,,,,,,
,,,,m,1.570765,0,40,40,40,1,paints/images/376.jpg,paints/images/256.jpg,41,Reighlyn,1,2020-11-20_15h26.21.828,test3,2020.2.4,MacIntel,60,,,,,,,,,
,,,,m,1.350855,0,41,41,41,1,paints/images/33.jpg,paints/images/261.jpg,42,Reighlyn,1,2020-11-20_15h26.21.828,test3,2020.2.4,MacIntel,60,,,,,,,,,
,,,,m,1.183575,0,42,42,42,1,paints/images/294.jpg,paints/images/96.jpg,43,Reighlyn,1,2020-11-20_15h26.21.828,test3,2020.2.4,MacIntel,60,,,,,,,,,
,,,,z,2.161385,0,43,43,43,1,paints/images/269.jpg,paints/images/293.jpg,44,Reighlyn,1,2020-11-20_15h26.21.828,test3,2020.2.4,MacIntel,60,,,,,,,,,
,,,,z,2.1855,0,44,44,44,1,paints/images/199.jpg,paints/images/284.jpg,45,Reighlyn,1,2020-11-20_15h26.21.828,test3,2020.2.4,MacIntel,60,,,,,,,,,
,,,,m,2.26587,0,45,45,45,1,paints/images/255.jpg,paints/images/281.jpg,46,Reighlyn,1,2020-11-20_15h26.21.828,test3,2020.2.4,MacIntel,60,,,,,,,,,
,,,,m,3.26758,0,46,46,46,1,paints/images/382.jpg,paints/images/4.jpg,47,Reighlyn,1,2020-11-20_15h26.21.828,test3,2020.2.4,MacIntel,60,,,,,,,,,
,,,,z,4.49319,0,47,47,47,1,paints/images/111.jpg,paints/images/83.jpg,48,Reighlyn,1,2020-11-20_15h26.21.828,test3,2020.2.4,MacIntel,60,,,,,,,,,
,,,,m,6.632285,0,48,48,48,1,paints/images/239.jpg,paints/images/151.jpg,49,Reighlyn,1,2020-11-20_15h26.21.828,test3,2020.2.4,MacIntel,60,,,,,,,,,
,,,,m,1.865395,0,49,49,49,1,paints/images/84.jpg,paints/images/341.jpg,50,Reighlyn,1,2020-11-20_15h26.21.828,test3,2020.2.4,MacIntel,60,,,,,,,,,
,,,,z,4.21077,0,50,50,50,1,paints/images/317.jpg,paints/images/159.jpg,51,Reighlyn,1,2020-11-20_15h26.21.828,test3,2020.2.4,MacIntel,60,,,,,,,,,
,,,,m,0.929305,0,51,51,51,1,paints/images/153.jpg,paints/images/212.jpg,52,Reighlyn,1,2020-11-20_15h26.21.828,test3,2020.2.4,MacIntel,60,,,,,,,,,
,,,,z,0.989835,0,52,52,52,1,paints/images/5.jpg,paints/images/361.jpg,53,Reighlyn,1,2020-11-20_15h26.21.828,test3,2020.2.4,MacIntel,60,,,,,,,,,
,,,,z,0.993055,0,53,53,53,1,paints/images/319.jpg,paints/images/178.jpg,54,Reighlyn,1,2020-11-20_15h26.21.828,test3,2020.2.4,MacIntel,60,,,,,,,,,
,,,,m,1.75004,0,54,54,54,1,paints/images/118.jpg,paints/images/275.jpg,55,Reighlyn,1,2020-11-20_15h26.21.828,test3,2020.2.4,MacIntel,60,,,,,,,,,
,,,,z,1.52694,0,55,55,55,1,paints/images/213.jpg,paints/images/312.jpg,56,Reighlyn,1,2020-11-20_15h26.21.828,test3,2020.2.4,MacIntel,60,,,,,,,,,
,,,,z,3.116755,0,56,56,56,1,paints/images/4.jpg,paints/images/131.jpg,57,Reighlyn,1,2020-11-20_15h26.21.828,test3,2020.2.4,MacIntel,60,,,,,,,,,
,,,,z,0.879385,0,57,57,57,1,paints/images/206.jpg,paints/images/391.jpg,58,Reighlyn,1,2020-11-20_15h26.21.828,test3,2020.2.4,MacIntel,60,,,,,,,,,
,,,,m,0.898535,0,58,58,58,1,paints/images/349.jpg,paints/images/240.jpg,59,Reighlyn,1,2020-11-20_15h26.21.828,test3,2020.2.4,MacIntel,60,,,,,,,,,
,,,,m,1.236465,0,59,59,59,1,paints/images/174.jpg,paints/images/197.jpg,60,Reighlyn,1,2020-11-20_15h26.21.828,test3,2020.2.4,MacIntel,60,,,,,,,,,
,,,,z,1.09844,0,60,60,60,1,paints/images/93.jpg,paints/images/330.jpg,61,Reighlyn,1,2020-11-20_15h26.21.828,test3,2020.2.4,MacIntel,60,,,,,,,,,
,,,,m,2.781545,0,61,61,61,1,paints/images/262.jpg,paints/images/225.jpg,62,Reighlyn,1,2020-11-20_15h26.21.828,test3,2020.2.4,MacIntel,60,,,,,,,,,
,,,,m,1.45787,0,62,62,62,1,paints/images/322.jpg,paints/images/267.jpg,63,Reighlyn,1,2020-11-20_15h26.21.828,test3,2020.2.4,MacIntel,60,,,,,,,,,
,,,,z,1.03497,0,63,63,63,1,paints/images/104.jpg,paints/images/140.jpg,64,Reighlyn,1,2020-11-20_15h26.21.828,test3,2020.2.4,MacIntel,60,,,,,,,,,
,,,,m,1.738855,0,64,64,64,1,paints/images/400.jpg,paints/images/355.jpg,65,Reighlyn,1,2020-11-20_15h26.21.828,test3,2020.2.4,MacIntel,60,,,,,,,,,
,,,,z,1.526915,0,65,65,65,1,paints/images/89.jpg,paints/images/380.jpg,66,Reighlyn,1,2020-11-20_15h26.21.828,test3,2020.2.4,MacIntel,60,,,,,,,,,
,,,,z,1.72562,0,66,66,66,1,paints/images/181.jpg,paints/images/195.jpg,67,Reighlyn,1,2020-11-20_15h26.21.828,test3,2020.2.4,MacIntel,60,,,,,,,,,
,,,,m,1.28362,0,67,67,67,1,paints/images/130.jpg,paints/images/155.jpg,68,Reighlyn,1,2020-11-20_15h26.21.828,test3,2020.2.4,MacIntel,60,,,,,,,,,
,,,,m,1.3884,0,68,68,68,1,paints/images/15.jpg,paints/images/55.jpg,69,Reighlyn,1,2020-11-20_15h26.21.828,test3,2020.2.4,MacIntel,60,,,,,,,,,
,,,,z,2.0333,0,69,69,69,1,paints/images/393.jpg,paints/images/34.jpg,70,Reighlyn,1,2020-11-20_15h26.21.828,test3,2020.2.4,MacIntel,60,,,,,,,,,
,,,,m,1.982795,0,70,70,70,1,paints/images/192.jpg,paints/images/351.jpg,71,Reighlyn,1,2020-11-20_15h26.21.828,test3,2020.2.4,MacIntel,60,,,,,,,,,
,,,,z,1.91956,0,71,71,71,1,paints/images/57.jpg,paints/images/363.jpg,72,Reighlyn,1,2020-11-20_15h26.21.828,test3,2020.2.4,MacIntel,60,,,,,,,,,
,,,,z,1.91305,0,72,72,72,1,paints/images/243.jpg,paints/images/295.jpg,73,Reighlyn,1,2020-11-20_15h26.21.828,test3,2020.2.4,MacIntel,60,,,,,,,,,
,,,,z,1.30306,0,73,73,73,1,paints/images/196.jpg,paints/images/146.jpg,74,Reighlyn,1,2020-11-20_15h26.21.828,test3,2020.2.4,MacIntel,60,,,,,,,,,
,,,,z,2.89791,0,74,74,74,1,paints/images/367.jpg,paints/images/332.jpg,75,Reighlyn,1,2020-11-20_15h26.21.828,test3,2020.2.4,MacIntel,60,,,,,,,,,
,,,,z,1.3783,0,75,75,75,1,paints/images/249.jpg,paints/images/50.jpg,76,Reighlyn,1,2020-11-20_15h26.21.828,test3,2020.2.4,MacIntel,60,,,,,,,,,
,,,,m,1.40937,0,76,76,76,1,paints/images/100.jpg,paints/images/91.jpg,77,Reighlyn,1,2020-11-20_15h26.21.828,test3,2020.2.4,MacIntel,60,,,,,,,,,
,,,,m,1.182125,0,77,77,77,1,paints/images/301.jpg,paints/images/154.jpg,78,Reighlyn,1,2020-11-20_15h26.21.828,test3,2020.2.4,MacIntel,60,,,,,,,,,
,,,,z,2.316905,0,78,78,78,1,paints/images/13.jpg,paints/images/308.jpg,79,Reighlyn,1,2020-11-20_15h26.21.828,test3,2020.2.4,MacIntel,60,,,,,,,,,
,,,,z,1.313555,0,79,79,79,1,paints/images/11.jpg,paints/images/24.jpg,80,Reighlyn,1,2020-11-20_15h26.21.828,test3,2020.2.4,MacIntel,60,,,,,,,,,
,,,,m,1.316275,0,80,80,80,1,paints/images/27.jpg,paints/images/114.jpg,81,Reighlyn,1,2020-11-20_15h26.21.828,test3,2020.2.4,MacIntel,60,,,,,,,,,
,,,,z,2.448885,0,81,81,81,1,paints/images/334.jpg,paints/images/217.jpg,82,Reighlyn,1,2020-11-20_15h26.21.828,test3,2020.2.4,MacIntel,60,,,,,,,,,
,,,,m,1.684195,0,82,82,82,1,paints/images/340.jpg,paints/images/320.jpg,83,Reighlyn,1,2020-11-20_15h26.21.828,test3,2020.2.4,MacIntel,60,,,,,,,,,
,,,,z,2.047285,0,83,83,83,1,paints/images/204.jpg,paints/images/52.jpg,84,Reighlyn,1,2020-11-20_15h26.21.828,test3,2020.2.4,MacIntel,60,,,,,,,,,
,,,,m,7.85061,0,84,84,84,1,paints/images/266.jpg,paints/images/179.jpg,85,Reighlyn,1,2020-11-20_15h26.21.828,test3,2020.2.4,MacIntel,60,,,,,,,,,
,,,,m,1.80945,0,85,85,85,1,paints/images/309.jpg,paints/images/45.jpg,86,Reighlyn,1,2020-11-20_15h26.21.828,test3,2020.2.4,MacIntel,60,,,,,,,,,
,,,,z,1.431865,0,86,86,86,1,paints/images/48.jpg,paints/images/352.jpg,87,Reighlyn,1,2020-11-20_15h26.21.828,test3,2020.2.4,MacIntel,60,,,,,,,,,
,,,,z,2.116825,0,87,87,87,1,paints/images/238.jpg,paints/images/190.jpg,88,Reighlyn,1,2020-11-20_15h26.21.828,test3,2020.2.4,MacIntel,60,,,,,,,,,
,,,,m,3.584455,0,88,88,88,1,paints/images/216.jpg,paints/images/207.jpg,89,Reighlyn,1,2020-11-20_15h26.21.828,test3,2020.2.4,MacIntel,60,,,,,,,,,
,,,,z,2.39439,0,89,89,89,1,paints/images/228.jpg,paints/images/315.jpg,90,Reighlyn,1,2020-11-20_15h26.21.828,test3,2020.2.4,MacIntel,60,,,,,,,,,
,,,,m,1.62062,0,90,90,90,1,paints/images/368.jpg,paints/images/221.jpg,91,Reighlyn,1,2020-11-20_15h26.21.828,test3,2020.2.4,MacIntel,60,,,,,,,,,
,,,,m,2.49204,0,91,91,91,1,paints/images/402.jpg,paints/images/257.jpg,92,Reighlyn,1,2020-11-20_15h26.21.828,test3,2020.2.4,MacIntel,60,,,,,,,,,
,,,,z,0.86224,0,92,92,92,1,paints/images/248.jpg,paints/images/296.jpg,93,Reighlyn,1,2020-11-20_15h26.21.828,test3,2020.2.4,MacIntel,60,,,,,,,,,
,,,,z,1.183115,0,93,93,93,1,paints/images/234.jpg,paints/images/174.jpg,94,Reighlyn,1,2020-11-20_15h26.21.828,test3,2020.2.4,MacIntel,60,,,,,,,,,
,,,,m,2.300515,0,94,94,94,1,paints/images/149.jpg,paints/images/204.jpg,95,Reighlyn,1,2020-11-20_15h26.21.828,test3,2020.2.4,MacIntel,60,,,,,,,,,
,,,,z,1.27938,0,95,95,95,1,paints/images/56.jpg,paints/images/117.jpg,96,Reighlyn,1,2020-11-20_15h26.21.828,test3,2020.2.4,MacIntel,60,,,,,,,,,
,,,,m,2.50112,0,96,96,96,1,paints/images/146.jpg,paints/images/287.jpg,97,Reighlyn,1,2020-11-20_15h26.21.828,test3,2020.2.4,MacIntel,60,,,,,,,,,
,,,,z,2.685095,0,97,97,97,1,paints/images/221.jpg,paints/images/62.jpg,98,Reighlyn,1,2020-11-20_15h26.21.828,test3,2020.2.4,MacIntel,60,,,,,,,,,
,,,,m,1.74794,0,98,98,98,1,paints/images/110.jpg,paints/images/321.jpg,99,Reighlyn,1,2020-11-20_15h26.21.828,test3,2020.2.4,MacIntel,60,,,,,,,,,
,,,,z,1.01754,0,99,99,99,1,paints/images/67.jpg,paints/images/384.jpg,100,Reighlyn,1,2020-11-20_15h26.21.828,test3,2020.2.4,MacIntel,60,,,,,,,,,
,,,,z,1.66878,0,100,100,100,1,paints/images/356.jpg,paints/images/137.jpg,101,Reighlyn,1,2020-11-20_15h26.21.828,test3,2020.2.4,MacIntel,60,,,,,,,,,
,,,,m,0.87811,0,101,101,101,1,paints/images/274.jpg,paints/images/232.jpg,102,Reighlyn,1,2020-11-20_15h26.21.828,test3,2020.2.4,MacIntel,60,,,,,,,,,
,,,,m,1.233275,0,102,102,102,1,paints/images/70.jpg,paints/images/183.jpg,103,Reighlyn,1,2020-11-20_15h26.21.828,test3,2020.2.4,MacIntel,60,,,,,,,,,
,,,,m,1.3654,0,103,103,103,1,paints/images/10.jpg,paints/images/393.jpg,104,Reighlyn,1,2020-11-20_15h26.21.828,test3,2020.2.4,MacIntel,60,,,,,,,,,
,,,,z,2.12072,0,104,104,104,1,paints/images/378.jpg,paints/images/181.jpg,105,Reighlyn,1,2020-11-20_15h26.21.828,test3,2020.2.4,MacIntel,60,,,,,,,,,
,,,,z,2.20914,0,105,105,105,1,paints/images/303.jpg,paints/images/334.jpg,106,Reighlyn,1,2020-11-20_15h26.21.828,test3,2020.2.4,MacIntel,60,,,,,,,,,
,,,,z,1.331115,0,106,106,106,1,paints/images/328.jpg,paints/images/344.jpg,107,Reighlyn,1,2020-11-20_15h26.21.828,test3,2020.2.4,MacIntel,60,,,,,,,,,
,,,,z,2.02088,0,107,107,107,1,paints/images/397.jpg,paints/images/318.jpg,108,Reighlyn,1,2020-11-20_15h26.21.828,test3,2020.2.4,MacIntel,60,,,,,,,,,
,,,,z,1.45261,0,108,108,108,1,paints/images/365.jpg,paints/images/211.jpg,109,Reighlyn,1,2020-11-20_15h26.21.828,test3,2020.2.4,MacIntel,60,,,,,,,,,
,,,,m,1.24587,0,109,109,109,1,paints/images/23.jpg,paints/images/46.jpg,110,Reighlyn,1,2020-11-20_15h26.21.828,test3,2020.2.4,MacIntel,60,,,,,,,,,
,,,,z,1.834865,0,110,110,110,1,paints/images/304.jpg,paints/images/11.jpg,111,Reighlyn,1,2020-11-20_15h26.21.828,test3,2020.2.4,MacIntel,60,,,,,,,,,
,,,,m,1.08882,0,111,111,111,1,paints/images/226.jpg,paints/images/6.jpg,112,Reighlyn,1,2020-11-20_15h26.21.828,test3,2020.2.4,MacIntel,60,,,,,,,,,
,,,,z,1.20257,0,112,112,112,1,paints/images/170.jpg,paints/images/262.jpg,113,Reighlyn,1,2020-11-20_15h26.21.828,test3,2020.2.4,MacIntel,60,,,,,,,,,
,,,,z,1.570765,0,113,113,113,1,paints/images/259.jpg,paints/images/343.jpg,114,Reighlyn,1,2020-11-20_15h26.21.828,test3,2020.2.4,MacIntel,60,,,,,,,,,
,,,,m,2.411325,0,114,114,114,1,paints/images/19.jpg,paints/images/394.jpg,115,Reighlyn,1,2020-11-20_15h26.21.828,test3,2020.2.4,MacIntel,60,,,,,,,,,
,,,,m,1.16464,0,115,115,115,1,paints/images/215.jpg,paints/images/19.jpg,116,Reighlyn,1,2020-11-20_15h26.21.828,test3,2020.2.4,MacIntel,60,,,,,,,,,
,,,,z,2.486535,0,116,116,116,1,paints/images/52.jpg,paints/images/360.jpg,117,Reighlyn,1,2020-11-20_15h26.21.828,test3,2020.2.4,MacIntel,60,,,,,,,,,
,,,,m,1.147305,0,117,117,117,1,paints/images/99.jpg,paints/images/328.jpg,118,Reighlyn,1,2020-11-20_15h26.21.828,test3,2020.2.4,MacIntel,60,,,,,,,,,
,,,,m,1.13349,0,118,118,118,1,paints/images/150.jpg,paints/images/164.jpg,119,Reighlyn,1,2020-11-20_15h26.21.828,test3,2020.2.4,MacIntel,60,,,,,,,,,
,,,,z,1.165575,0,119,119,119,1,paints/images/172.jpg,paints/images/213.jpg,120,Reighlyn,1,2020-11-20_15h26.21.828,test3,2020.2.4,MacIntel,60,,,,,,,,,
,,,,z,1.599875,0,120,120,120,1,paints/images/50.jpg,paints/images/101.jpg,121,Reighlyn,1,2020-11-20_15h26.21.828,test3,2020.2.4,MacIntel,60,,,,,,,,,
,,,,m,1.131,0,121,121,121,1,paints/images/358.jpg,paints/images/354.jpg,122,Reighlyn,1,2020-11-20_15h26.21.828,test3,2020.2.4,MacIntel,60,,,,,,,,,
,,,,z,2.56729,0,122,122,122,1,paints/images/257.jpg,paints/images/265.jpg,123,Reighlyn,1,2020-11-20_15h26.21.828,test3,2020.2.4,MacIntel,60,,,,,,,,,
,,,,z,2.40021,0,123,123,123,1,paints/images/91.jpg,paints/images/342.jpg,124,Reighlyn,1,2020-11-20_15h26.21.828,test3,2020.2.4,MacIntel,60,,,,,,,,,
,,,,z,1.286605,0,124,124,124,1,paints/images/168.jpg,paints/images/132.jpg,125,Reighlyn,1,2020-11-20_15h26.21.828,test3,2020.2.4,MacIntel,60,,,,,,,,,
,,,,m,1.827435,0,125,125,125,1,paints/images/280.jpg,paints/images/98.jpg,126,Reighlyn,1,2020-11-20_15h26.21.828,test3,2020.2.4,MacIntel,60,,,,,,,,,
,,,,z,2.08391,0,126,126,126,1,paints/images/261.jpg,paints/images/40.jpg,127,Reighlyn,1,2020-11-20_15h26.21.828,test3,2020.2.4,MacIntel,60,,,,,,,,,
,,,,z,1.331655,0,127,127,127,1,paints/images/333.jpg,paints/images/66.jpg,128,Reighlyn,1,2020-11-20_15h26.21.828,test3,2020.2.4,MacIntel,60,,,,,,,,,
,,,,m,0.802785,0,128,128,128,1,paints/images/96.jpg,paints/images/82.jpg,129,Reighlyn,1,2020-11-20_15h26.21.828,test3,2020.2.4,MacIntel,60,,,,,,,,,
,,,,m,0.97111,0,129,129,129,1,paints/images/32.jpg,paints/images/325.jpg,130,Reighlyn,1,2020-11-20_15h26.21.828,test3,2020.2.4,MacIntel,60,,,,,,,,,
,,,,m,1.2708,0,130,130,130,1,paints/images/268.jpg,paints/images/167.jpg,131,Reighlyn,1,2020-11-20_15h26.21.828,test3,2020.2.4,MacIntel,60,,,,,,,,,
,,,,m,1.081985,0,131,131,131,1,paints/images/162.jpg,paints/images/25.jpg,132,Reighlyn,1,2020-11-20_15h26.21.828,test3,2020.2.4,MacIntel,60,,,,,,,,,
,,,,m,1.51813,0,132,132,132,1,paints/images/53.jpg,paints/images/305.jpg,133,Reighlyn,1,2020-11-20_15h26.21.828,test3,2020.2.4,MacIntel,60,,,,,,,,,
,,,,z,2.009755,0,133,133,133,1,paints/images/263.jpg,paints/images/209.jpg,134,Reighlyn,1,2020-11-20_15h26.21.828,test3,2020.2.4,MacIntel,60,,,,,,,,,
,,,,z,2.10239,0,134,134,134,1,paints/images/92.jpg,paints/images/364.jpg,135,Reighlyn,1,2020-11-20_15h26.21.828,test3,2020.2.4,MacIntel,60,,,,,,,,,
,,,,m,1.06389,0,135,135,135,1,paints/images/61.jpg,paints/images/291.jpg,136,Reighlyn,1,2020-11-20_15h26.21.828,test3,2020.2.4,MacIntel,60,,,,,,,,,
,,,,m,1.63868,0,136,136,136,1,paints/images/293.jpg,paints/images/283.jpg,137,Reighlyn,1,2020-11-20_15h26.21.828,test3,2020.2.4,MacIntel,60,,,,,,,,,
,,,,m,2.258075,0,137,137,137,1,paints/images/229.jpg,paints/images/173.jpg,138,Reighlyn,1,2020-11-20_15h26.21.828,test3,2020.2.4,MacIntel,60,,,,,,,,,
,,,,m,2.349255,0,138,138,138,1,paints/images/41.jpg,paints/images/133.jpg,139,Reighlyn,1,2020-11-20_15h26.21.828,test3,2020.2.4,MacIntel,60,,,,,,,,,
,,,,m,2.551555,0,139,139,139,1,paints/images/182.jpg,paints/images/348.jpg,140,Reighlyn,1,2020-11-20_15h26.21.828,test3,2020.2.4,MacIntel,60,,,,,,,,,
,,,,m,1.281655,0,140,140,140,1,paints/images/379.jpg,paints/images/228.jpg,141,Reighlyn,1,2020-11-20_15h26.21.828,test3,2020.2.4,MacIntel,60,,,,,,,,,
,,,,m,1.33582,0,141,141,141,1,paints/images/188.jpg,paints/images/13.jpg,142,Reighlyn,1,2020-11-20_15h26.21.828,test3,2020.2.4,MacIntel,60,,,,,,,,,
,,,,m,1.695895,0,142,142,142,1,paints/images/40.jpg,paints/images/329.jpg,143,Reighlyn,1,2020-11-20_15h26.21.828,test3,2020.2.4,MacIntel,60,,,,,,,,,
,,,,z,2.251745,0,143,143,143,1,paints/images/323.jpg,paints/images/165.jpg,144,Reighlyn,1,2020-11-20_15h26.21.828,test3,2020.2.4,MacIntel,60,,,,,,,,,
,,,,m,1.51489,0,144,144,144,1,paints/images/78.jpg,paints/images/407.jpg,145,Reighlyn,1,2020-11-20_15h26.21.828,test3,2020.2.4,MacIntel,60,,,,,,,,,
,,,,m,1.13191,0,145,145,145,1,paints/images/242.jpg,paints/images/75.jpg,146,Reighlyn,1,2020-11-20_15h26.21.828,test3,2020.2.4,MacIntel,60,,,,,,,,,
,,,,m,1.0866,0,146,146,146,1,paints/images/62.jpg,paints/images/187.jpg,147,Reighlyn,1,2020-11-20_15h26.21.828,test3,2020.2.4,MacIntel,60,,,,,,,,,
,,,,m,1.02671,0,147,147,147,1,paints/images/131.jpg,paints/images/285.jpg,148,Reighlyn,1,2020-11-20_15h26.21.828,test3,2020.2.4,MacIntel,60,,,,,,,,,
,,,,m,1.33496,0,148,148,148,1,paints/images/241.jpg,paints/images/97.jpg,149,Reighlyn,1,2020-11-20_15h26.21.828,test3,2020.2.4,MacIntel,60,,,,,,,,,
,,,,m,1.134435,0,149,149,149,1,paints/images/132.jpg,paints/images/289.jpg,150,Reighlyn,1,2020-11-20_15h26.21.828,test3,2020.2.4,MacIntel,60,,,,,,,,,
,,,,z,1.16943,0,150,150,150,1,paints/images/185.jpg,paints/images/54.jpg,151,Reighlyn,1,2020-11-20_15h26.21.828,test3,2020.2.4,MacIntel,60,,,,,,,,,
,,,,m,1.15072,0,151,151,151,1,paints/images/272.jpg,paints/images/51.jpg,152,Reighlyn,1,2020-11-20_15h26.21.828,test3,2020.2.4,MacIntel,60,,,,,,,,,
,,,,z,1.94627,0,152,152,152,1,paints/images/403.jpg,paints/images/71.jpg,153,Reighlyn,1,2020-11-20_15h26.21.828,test3,2020.2.4,MacIntel,60,,,,,,,,,
,,,,m,1.84678,0,153,153,153,1,paints/images/202.jpg,paints/images/219.jpg,154,Reighlyn,1,2020-11-20_15h26.21.828,test3,2020.2.4,MacIntel,60,,,,,,,,,
,,,,m,1.17029,0,154,154,154,1,paints/images/34.jpg,paints/images/271.jpg,155,Reighlyn,1,2020-11-20_15h26.21.828,test3,2020.2.4,MacIntel,60,,,,,,,,,
,,,,m,1.079825,0,155,155,155,1,paints/images/296.jpg,paints/images/90.jpg,156,Reighlyn,1,2020-11-20_15h26.21.828,test3,2020.2.4,MacIntel,60,,,,,,,,,
,,,,m,1.835295,0,156,156,156,1,paints/images/25.jpg,paints/images/338.jpg,157,Reighlyn,1,2020-11-20_15h26.21.828,test3,2020.2.4,MacIntel,60,,,,,,,,,
,,,,m,1.700325,0,157,157,157,1,paints/images/396.jpg,paints/images/78.jpg,158,Reighlyn,1,2020-11-20_15h26.21.828,test3,2020.2.4,MacIntel,60,,,,,,,,,
,,,,m,1.75156,0,158,158,158,1,paints/images/72.jpg,paints/images/111.jpg,159,Reighlyn,1,2020-11-20_15h26.21.828,test3,2020.2.4,MacIntel,60,,,,,,,,,
,,,,z,1.72095,0,159,159,159,1,paints/images/164.jpg,paints/images/16.jpg,160,Reighlyn,1,2020-11-20_15h26.21.828,test3,2020.2.4,MacIntel,60,,,,,,,,,
,,,,z,1.82064,0,160,160,160,1,paints/images/387.jpg,paints/images/244.jpg,161,Reighlyn,1,2020-11-20_15h26.21.828,test3,2020.2.4,MacIntel,60,,,,,,,,,
,,,,m,1.309835,0,161,161,161,1,paints/images/64.jpg,paints/images/260.jpg,162,Reighlyn,1,2020-11-20_15h26.21.828,test3,2020.2.4,MacIntel,60,,,,,,,,,
,,,,m,1.686265,0,162,162,162,1,paints/images/160.jpg,paints/images/63.jpg,163,Reighlyn,1,2020-11-20_15h26.21.828,test3,2020.2.4,MacIntel,60,,,,,,,,,
,,,,m,1.95583,0,163,163,163,1,paints/images/3.jpg,paints/images/282.jpg,164,Reighlyn,1,2020-11-20_15h26.21.828,test3,2020.2.4,MacIntel,60,,,,,,,,,
,,,,m,2.12032,0,164,164,164,1,paints/images/307.jpg,paints/images/152.jpg,165,Reighlyn,1,2020-11-20_15h26.21.828,test3,2020.2.4,MacIntel,60,,,,,,,,,
,,,,z,2.066225,0,165,165,165,1,paints/images/311.jpg,paints/images/123.jpg,166,Reighlyn,1,2020-11-20_15h26.21.828,test3,2020.2.4,MacIntel,60,,,,,,,,,
,,,,z,2.98341,0,166,166,166,1,paints/images/143.jpg,paints/images/286.jpg,167,Reighlyn,1,2020-11-20_15h26.21.828,test3,2020.2.4,MacIntel,60,,,,,,,,,
,,,,z,1.28255,0,167,167,167,1,paints/images/97.jpg,paints/images/216.jpg,168,Reighlyn,1,2020-11-20_15h26.21.828,test3,2020.2.4,MacIntel,60,,,,,,,,,
,,,,m,1.064875,0,168,168,168,1,paints/images/395.jpg,paints/images/170.jpg,169,Reighlyn,1,2020-11-20_15h26.21.828,test3,2020.2.4,MacIntel,60,,,,,,,,,
,,,,z,1.02147,0,169,169,169,1,paints/images/151.jpg,paints/images/26.jpg,170,Reighlyn,1,2020-11-20_15h26.21.828,test3,2020.2.4,MacIntel,60,,,,,,,,,
,,,,z,0.969045,0,170,170,170,1,paints/images/51.jpg,paints/images/32.jpg,171,Reighlyn,1,2020-11-20_15h26.21.828,test3,2020.2.4,MacIntel,60,,,,,,,,,
,,,,m,1.29631,0,171,171,171,1,paints/images/305.jpg,paints/images/176.jpg,172,Reighlyn,1,2020-11-20_15h26.21.828,test3,2020.2.4,MacIntel,60,,,,,,,,,
,,,,m,1.678805,0,172,172,172,1,paints/images/137.jpg,paints/images/48.jpg,173,Reighlyn,1,2020-11-20_15h26.21.828,test3,2020.2.4,MacIntel,60,,,,,,,,,
,,,,m,0.99514,0,173,173,173,1,paints/images/65.jpg,paints/images/243.jpg,174,Reighlyn,1,2020-11-20_15h26.21.828,test3,2020.2.4,MacIntel,60,,,,,,,,,
,,,,z,0.943215,0,174,174,174,1,paints/images/115.jpg,paints/images/210.jpg,175,Reighlyn,1,2020-11-20_15h26.21.828,test3,2020.2.4,MacIntel,60,,,,,,,,,
,,,,z,1.635635,0,175,175,175,1,paints/images/310.jpg,paints/images/58.jpg,176,Reighlyn,1,2020-11-20_15h26.21.828,test3,2020.2.4,MacIntel,60,,,,,,,,,
,,,,m,0.8482,0,176,176,176,1,paints/images/1.jpg,paints/images/112.jpg,177,Reighlyn,1,2020-11-20_15h26.21.828,test3,2020.2.4,MacIntel,60,,,,,,,,,
,,,,m,1.08309,0,177,177,177,1,paints/images/125.jpg,paints/images/17.jpg,178,Reighlyn,1,2020-11-20_15h26.21.828,test3,2020.2.4,MacIntel,60,,,,,,,,,
,,,,m,1.451135,0,178,178,178,1,paints/images/279.jpg,paints/images/166.jpg,179,Reighlyn,1,2020-11-20_15h26.21.828,test3,2020.2.4,MacIntel,60,,,,,,,,,
,,,,m,1.300145,0,179,179,179,1,paints/images/316.jpg,paints/images/306.jpg,180,Reighlyn,1,2020-11-20_15h26.21.828,test3,2020.2.4,MacIntel,60,,,,,,,,,
,,,,m,1.63483,0,180,180,180,1,paints/images/22.jpg,paints/images/214.jpg,181,Reighlyn,1,2020-11-20_15h26.21.828,test3,2020.2.4,MacIntel,60,,,,,,,,,
,,,,m,0.8949,0,181,181,181,1,paints/images/54.jpg,paints/images/235.jpg,182,Reighlyn,1,2020-11-20_15h26.21.828,test3,2020.2.4,MacIntel,60,,,,,,,,,
,,,,z,1.630085,0,182,182,182,1,paints/images/225.jpg,paints/images/160.jpg,183,Reighlyn,1,2020-11-20_15h26.21.828,test3,2020.2.4,MacIntel,60,,,,,,,,,
,,,,z,1.25393,0,183,183,183,1,paints/images/339.jpg,paints/images/59.jpg,184,Reighlyn,1,2020-11-20_15h26.21.828,test3,2020.2.4,MacIntel,60,,,,,,,,,
,,,,z,1.228505,0,184,184,184,1,paints/images/409.jpg,paints/images/180.jpg,185,Reighlyn,1,2020-11-20_15h26.21.828,test3,2020.2.4,MacIntel,60,,,,,,,,,
,,,,m,2.01385,0,185,185,185,1,paints/images/145.jpg,paints/images/115.jpg,186,Reighlyn,1,2020-11-20_15h26.21.828,test3,2020.2.4,MacIntel,60,,,,,,,,,
,,,,z,0.897505,0,186,186,186,1,paints/images/147.jpg,paints/images/37.jpg,187,Reighlyn,1,2020-11-20_15h26.21.828,test3,2020.2.4,MacIntel,60,,,,,,,,,
,,,,m,3.621615,0,187,187,187,1,paints/images/288.jpg,paints/images/64.jpg,188,Reighlyn,1,2020-11-20_15h26.21.828,test3,2020.2.4,MacIntel,60,,,,,,,,,
,,,,z,1.024845,0,188,188,188,1,paints/images/235.jpg,paints/images/201.jpg,189,Reighlyn,1,2020-11-20_15h26.21.828,test3,2020.2.4,MacIntel,60,,,,,,,,,
,,,,m,1.43442,0,189,189,189,1,paints/images/313.jpg,paints/images/2.jpg,190,Reighlyn,1,2020-11-20_15h26.21.828,test3,2020.2.4,MacIntel,60,,,,,,,,,
,,,,z,1.398755,0,190,190,190,1,paints/images/329.jpg,paints/images/38.jpg,191,Reighlyn,1,2020-11-20_15h26.21.828,test3,2020.2.4,MacIntel,60,,,,,,,,,
,,,,m,0.750445,0,191,191,191,1,paints/images/9.jpg,paints/images/241.jpg,192,Reighlyn,1,2020-11-20_15h26.21.828,test3,2020.2.4,MacIntel,60,,,,,,,,,
,,,,z,0.81642,0,192,192,192,1,paints/images/364.jpg,paints/images/44.jpg,193,Reighlyn,1,2020-11-20_15h26.21.828,test3,2020.2.4,MacIntel,60,,,,,,,,,
,,,,z,1.16542,0,193,193,193,1,paints/images/14.jpg,paints/images/109.jpg,194,Reighlyn,1,2020-11-20_15h26.21.828,test3,2020.2.4,MacIntel,60,,,,,,,,,
,,,,m,0.965155,0,194,194,194,1,paints/images/0.jpg,paints/images/14.jpg,195,Reighlyn,1,2020-11-20_15h26.21.828,test3,2020.2.4,MacIntel,60,,,,,,,,,
,,,,m,2.152145,0,195,195,195,1,paints/images/398.jpg,paints/images/247.jpg,196,Reighlyn,1,2020-11-20_15h26.21.828,test3,2020.2.4,MacIntel,60,,,,,,,,,
,,,,m,1.304115,0,196,196,196,1,paints/images/377.jpg,paints/images/237.jpg,197,Reighlyn,1,2020-11-20_15h26.21.828,test3,2020.2.4,MacIntel,60,,,,,,,,,
,,,,z,0.909605,0,197,197,197,1,paints/images/246.jpg,paints/images/184.jpg,198,Reighlyn,1,2020-11-20_15h26.21.828,test3,2020.2.4,MacIntel,60,,,,,,,,,
,,,,z,1.14856,0,198,198,198,1,paints/images/299.jpg,paints/images/301.jpg,199,Reighlyn,1,2020-11-20_15h26.21.828,test3,2020.2.4,MacIntel,60,,,,,,,,,
,,,,z,1.46419,0,199,199,199,1,paints/images/116.jpg,paints/images/148.jpg,200,Reighlyn,1,2020-11-20_15h26.21.828,test3,2020.2.4,MacIntel,60,,,,,,,,,
,,,,z,1.812885,0,0,0,0,1,paints/images/267.jpg,paints/images/336.jpg,1,Reighlyn,1,2020-11-20_15h26.21.828,test3,2020.2.4,MacIntel,60,space,1.234325,z,1.812885,0,0,0,0,1
,,,,z,1.224885,0,1,1,1,1,paints/images/6.jpg,paints/images/182.jpg,2,Reighlyn,1,2020-11-20_15h26.21.828,test3,2020.2.4,MacIntel,60,,,z,1.224885,0,1,1,1,1
,,,,m,0.962385,0,2,2,2,1,paints/images/348.jpg,paints/images/105.jpg,3,Reighlyn,1,2020-11-20_15h26.21.828,test3,2020.2.4,MacIntel,60,,,m,0.962385,0,2,2,2,1
,,,,m,2.332055,0,3,3,3,1,paints/images/404.jpg,paints/images/372.jpg,4,Reighlyn,1,2020-11-20_15h26.21.828,test3,2020.2.4,MacIntel,60,,,m,2.332055,0,3,3,3,1
,,,,m,1.45193,0,4,4,4,1,paints/images/324.jpg,paints/images/134.jpg,5,Reighlyn,1,2020-11-20_15h26.21.828,test3,2020.2.4,MacIntel,60,,,m,1.45193,0,4,4,4,1
,,,,m,1.41204,0,5,5,5,1,paints/images/278.jpg,paints/images/269.jpg,6,Reighlyn,1,2020-11-20_15h26.21.828,test3,2020.2.4,MacIntel,60,,,m,1.41204,0,5,5,5,1
,,,,z,1.048805,0,6,6,6,1,paints/images/237.jpg,paints/images/375.jpg,7,Reighlyn,1,2020-11-20_15h26.21.828,test3,2020.2.4,MacIntel,60,,,z,1.048805,0,6,6,6,1
,,,,m,1.26796,0,7,7,7,1,paints/images/109.jpg,paints/images/224.jpg,8,Reighlyn,1,2020-11-20_15h26.21.828,test3,2020.2.4,MacIntel,60,,,m,1.26796,0,7,7,7,1
,,,,m,1.613835,0,8,8,8,1,paints/images/318.jpg,paints/images/127.jpg,9,Reighlyn,1,2020-11-20_15h26.21.828,test3,2020.2.4,MacIntel,60,,,m,1.613835,0,8,8,8,1
,,,,z,1.16728,0,9,9,9,1,paints/images/120.jpg,paints/images/254.jpg,10,Reighlyn,1,2020-11-20_15h26.21.828,test3,2020.2.4,MacIntel,60,,,z,1.16728,0,9,9,9,1
,,,,m,1.31738,0,10,10,10,1,paints/images/86.jpg,paints/images/67.jpg,11,Reighlyn,1,2020-11-20_15h26.21.828,test3,2020.2.4,MacIntel,60,,,m,1.31738,0,10,10,10,1
,,,,m,3.52846,0,11,11,11,1,paints/images/302.jpg,paints/images/245.jpg,12,Reighlyn,1,2020-11-20_15h26.21.828,test3,2020.2.4,MacIntel,60,,,m,3.52846,0,11,11,11,1
,,,,z,1.032895,0,12,12,12,1,paints/images/94.jpg,paints/images/242.jpg,13,Reighlyn,1,2020-11-20_15h26.21.828,test3,2020.2.4,MacIntel,60,,,z,1.032895,0,12,12,12,1
,,,,z,1.42055,0,13,13,13,1,paints/images/295.jpg,paints/images/72.jpg,14,Reighlyn,1,2020-11-20_15h26.21.828,test3,2020.2.4,MacIntel,60,,,z,1.42055,0,13,13,13,1
,,,,z,1.060115,0,14,14,14,1,paints/images/227.jpg,paints/images/175.jpg,15,Reighlyn,1,2020-11-20_15h26.21.828,test3,2020.2.4,MacIntel,60,,,z,1.060115,0,14,14,14,1
,,,,m,0.93305,0,15,15,15,1,paints/images/26.jpg,paints/images/203.jpg,16,Reighlyn,1,2020-11-20_15h26.21.828,test3,2020.2.4,MacIntel,60,,,m,0.93305,0,15,15,15,1
,,,,z,1.554475,0,16,16,16,1,paints/images/45.jpg,paints/images/272.jpg,17,Reighlyn,1,2020-11-20_15h26.21.828,test3,2020.2.4,MacIntel,60,,,z,1.554475,0,16,16,16,1
,,,,z,1.21874,0,17,17,17,1,paints/images/410.jpg,paints/images/185.jpg,18,Reighlyn,1,2020-11-20_15h26.21.828,test3,2020.2.4,MacIntel,60,,,z,1.21874,0,17,17,17,1
,,,,m,1.91541,0,18,18,18,1,paints/images/380.jpg,paints/images/0.jpg,19,Reighlyn,1,2020-11-20_15h26.21.828,test3,2020.2.4,MacIntel,60,,,m,1.91541,0,18,18,18,1
,,,,m,0.920075,0,19,19,19,1,paints/images/370.jpg,paints/images/106.jpg,20,Reighlyn,1,2020-11-20_15h26.21.828,test3,2020.2.4,MacIntel,60,,,m,0.920075,0,19,19,19,1
,,,,z,1.37804,0,20,20,20,1,paints/images/102.jpg,paints/images/309.jpg,21,Reighlyn,1,2020-11-20_15h26.21.828,test3,2020.2.4,MacIntel,60,,,z,1.37804,0,20,20,20,1
,,,,m,0.998805,0,21,21,21,1,paints/images/167.jpg,paints/images/299.jpg,22,Reighlyn,1,2020-11-20_15h26.21.828,test3,2020.2.4,MacIntel,60,,,m,0.998805,0,21,21,21,1
,,,,z,0.94976,0,22,22,22,1,paints/images/290.jpg,paints/images/192.jpg,23,Reighlyn,1,2020-11-20_15h26.21.828,test3,2020.2.4,MacIntel,60,,,z,0.94976,0,22,22,22,1
,,,,m,0.882015,0,23,23,23,1,paints/images/82.jpg,paints/images/353.jpg,24,Reighlyn,1,2020-11-20_15h26.21.828,test3,2020.2.4,MacIntel,60,,,m,0.882015,0,23,23,23,1
,,,,z,2.15115,0,24,24,24,1,paints/images/75.jpg,paints/images/404.jpg,25,Reighlyn,1,2020-11-20_15h26.21.828,test3,2020.2.4,MacIntel,60,,,z,2.15115,0,24,24,24,1
,,,,m,0.98155,0,25,25,25,1,paints/images/117.jpg,paints/images/100.jpg,26,Reighlyn,1,2020-11-20_15h26.21.828,test3,2020.2.4,MacIntel,60,,,m,0.98155,0,25,25,25,1
,,,,z,1.57545,0,26,26,26,1,paints/images/200.jpg,paints/images/378.jpg,27,Reighlyn,1,2020-11-20_15h26.21.828,test3,2020.2.4,MacIntel,60,,,z,1.57545,0,26,26,26,1
,,,,z,1.05596,0,27,27,27,1,paints/images/371.jpg,paints/images/57.jpg,28,Reighlyn,1,2020-11-20_15h26.21.828,test3,2020.2.4,MacIntel,60,,,z,1.05596,0,27,27,27,1
,,,,z,1.50778,0,28,28,28,1,paints/images/87.jpg,paints/images/302.jpg,29,Reighlyn,1,2020-11-20_15h26.21.828,test3,2020.2.4,MacIntel,60,,,z,1.50778,0,28,28,28,1
,,,,m,1.307475,0,29,29,29,1,paints/images/208.jpg,paints/images/39.jpg,30,Reighlyn,1,2020-11-20_15h26.21.828,test3,2020.2.4,MacIntel,60,,,m,1.307475,0,29,29,29,1
,,,,m,1.324575,0,30,30,30,1,paints/images/198.jpg,paints/images/200.jpg,31,Reighlyn,1,2020-11-20_15h26.21.828,test3,2020.2.4,MacIntel,60,,,m,1.324575,0,30,30,30,1
,,,,z,1.1667,0,31,31,31,1,paints/images/43.jpg,paints/images/42.jpg,32,Reighlyn,1,2020-11-20_15h26.21.828,test3,2020.2.4,MacIntel,60,,,z,1.1667,0,31,31,31,1
,,,,m,2.088895,0,32,32,32,1,paints/images/286.jpg,paints/images/376.jpg,33,Reighlyn,1,2020-11-20_15h26.21.828,test3,2020.2.4,MacIntel,60,,,m,2.088895,0,32,32,32,1
,,,,z,3.63576,0,33,33,33,1,paints/images/275.jpg,paints/images/76.jpg,34,Reighlyn,1,2020-11-20_15h26.21.828,test3,2020.2.4,MacIntel,60,,,z,3.63576,0,33,33,33,1
,,,,m,1.896655,0,34,34,34,1,paints/images/138.jpg,paints/images/129.jpg,35,Reighlyn,1,2020-11-20_15h26.21.828,test3,2020.2.4,MacIntel,60,,,m,1.896655,0,34,34,34,1
,,,,z,1.433475,0,35,35,35,1,paints/images/386.jpg,paints/images/366.jpg,36,Reighlyn,1,2020-11-20_15h26.21.828,test3,2020.2.4,MacIntel,60,,,z,1.433475,0,35,35,35,1
,,,,z,2.17337,0,36,36,36,1,paints/images/232.jpg,paints/images/215.jpg,37,Reighlyn,1,2020-11-20_15h26.21.828,test3,2020.2.4,MacIntel,60,,,z,2.17337,0,36,36,36,1
,,,,z,1.166875,0,37,37,37,1,paints/images/122.jpg,paints/images/199.jpg,38,Reighlyn,1,2020-11-20_15h26.21.828,test3,2020.2.4,MacIntel,60,,,z,1.166875,0,37,37,37,1
,,,,z,1.064725,0,38,38,38,1,paints/images/388.jpg,paints/images/169.jpg,39,Reighlyn,1,2020-11-20_15h26.21.828,test3,2020.2.4,MacIntel,60,,,z,1.064725,0,38,38,38,1
,,,,m,1.45077,0,39,39,39,1,paints/images/399.jpg,paints/images/229.jpg,40,Reighlyn,1,2020-11-20_15h26.21.828,test3,2020.2.4,MacIntel,60,,,m,1.45077,0,39,39,39,1
,,,,m,1.189145,0,40,40,40,1,paints/images/300.jpg,paints/images/1.jpg,41,Reighlyn,1,2020-11-20_15h26.21.828,test3,2020.2.4,MacIntel,60,,,m,1.189145,0,40,40,40,1
,,,,m,2.288275,0,41,41,41,1,paints/images/195.jpg,paints/images/399.jpg,42,Reighlyn,1,2020-11-20_15h26.21.828,test3,2020.2.4,MacIntel,60,,,m,2.288275,0,41,41,41,1
,,,,z,1.047845,0,42,42,42,1,paints/images/281.jpg,paints/images/277.jpg,43,Reighlyn,1,2020-11-20_15h26.21.828,test3,2020.2.4,MacIntel,60,,,z,1.047845,0,42,42,42,1
,,,,z,1.65414,0,43,43,43,1,paints/images/103.jpg,paints/images/288.jpg,44,Reighlyn,1,2020-11-20_15h26.21.828,test3,2020.2.4,MacIntel,60,,,z,1.65414,0,43,43,43,1
,,,,z,0.93708,0,44,44,44,1,paints/images/297.jpg,paints/images/222.jpg,45,Reighlyn,1,2020-11-20_15h26.21.828,test3,2020.2.4,MacIntel,60,,,z,0.93708,0,44,44,44,1
,,,,m,0.931745,0,45,45,45,1,paints/images/394.jpg,paints/images/258.jpg,46,Reighlyn,1,2020-11-20_15h26.21.828,test3,2020.2.4,MacIntel,60,,,m,0.931745,0,45,45,45,1
,,,,z,1.067505,0,46,46,46,1,paints/images/73.jpg,paints/images/49.jpg,47,Reighlyn,1,2020-11-20_15h26.21.828,test3,2020.2.4,MacIntel,60,,,z,1.067505,0,46,46,46,1
,,,,m,1.695775,0,47,47,47,1,paints/images/112.jpg,paints/images/80.jpg,48,Reighlyn,1,2020-11-20_15h26.21.828,test3,2020.2.4,MacIntel,60,,,m,1.695775,0,47,47,47,1
,,,,z,0.977715,0,48,48,48,1,paints/images/245.jpg,paints/images/358.jpg,49,Reighlyn,1,2020-11-20_15h26.21.828,test3,2020.2.4,MacIntel,60,,,z,0.977715,0,48,48,48,1
,,,,z,1.21466,0,49,49,49,1,paints/images/347.jpg,paints/images/143.jpg,50,Reighlyn,1,2020-11-20_15h26.21.828,test3,2020.2.4,MacIntel,60,,,z,1.21466,0,49,49,49,1
,,,,m,0.9628,0,50,50,50,1,paints/images/352.jpg,paints/images/145.jpg,51,Reighlyn,1,2020-11-20_15h26.21.828,test3,2020.2.4,MacIntel,60,,,m,0.9628,0,50,50,50,1
,,,,m,1.220345,0,51,51,51,1,paints/images/69.jpg,paints/images/162.jpg,52,Reighlyn,1,2020-11-20_15h26.21.828,test3,2020.2.4,MacIntel,60,,,m,1.220345,0,51,51,51,1
,,,,z,1.387375,0,52,52,52,1,paints/images/381.jpg,paints/images/202.jpg,53,Reighlyn,1,2020-11-20_15h26.21.828,test3,2020.2.4,MacIntel,60,,,z,1.387375,0,52,52,52,1
,,,,z,0.941775,0,53,53,53,1,paints/images/361.jpg,paints/images/340.jpg,54,Reighlyn,1,2020-11-20_15h26.21.828,test3,2020.2.4,MacIntel,60,,,z,0.941775,0,53,53,53,1
,,,,m,0.915645,0,54,54,54,1,paints/images/217.jpg,paints/images/9.jpg,55,Reighlyn,1,2020-11-20_15h26.21.828,test3,2020.2.4,MacIntel,60,,,m,0.915645,0,54,54,54,1
,,,,m,1.749025,0,55,55,55,1,paints/images/8.jpg,paints/images/409.jpg,56,Reighlyn,1,2020-11-20_15h26.21.828,test3,2020.2.4,MacIntel,60,,,m,1.749025,0,55,55,55,1
,,,,m,1.099415,0,56,56,56,1,paints/images/59.jpg,paints/images/33.jpg,57,Reighlyn,1,2020-11-20_15h26.21.828,test3,2020.2.4,MacIntel,60,,,m,1.099415,0,56,56,56,1
,,,,m,1.30483,0,57,57,57,1,paints/images/21.jpg,paints/images/311.jpg,58,Reighlyn,1,2020-11-20_15h26.21.828,test3,2020.2.4,MacIntel,60,,,m,1.30483,0,57,57,57,1
,,,,z,0.99771,0,58,58,58,1,paints/images/408.jpg,paints/images/31.jpg,59,Reighlyn,1,2020-11-20_15h26.21.828,test3,2020.2.4,MacIntel,60,,,z,0.99771,0,58,58,58,1
,,,,z,1.18121,0,59,59,59,1,paints/images/98.jpg,paints/images/3.jpg,60,Reighlyn,1,2020-11-20_15h26.21.828,test3,2020.2.4,MacIntel,60,,,z,1.18121,0,59,59,59,1
,,,,z,1.185605,0,60,60,60,1,paints/images/336.jpg,paints/images/138.jpg,61,Reighlyn,1,2020-11-20_15h26.21.828,test3,2020.2.4,MacIntel,60,,,z,1.185605,0,60,60,60,1
,,,,m,1.003145,0,61,61,61,1,paints/images/186.jpg,paints/images/395.jpg,62,Reighlyn,1,2020-11-20_15h26.21.828,test3,2020.2.4,MacIntel,60,,,m,1.003145,0,61,61,61,1
,,,,m,1.385885,0,62,62,62,1,paints/images/76.jpg,paints/images/405.jpg,63,Reighlyn,1,2020-11-20_15h26.21.828,test3,2020.2.4,MacIntel,60,,,m,1.385885,0,62,62,62,1
,,,,z,2.7614,0,63,63,63,1,paints/images/171.jpg,paints/images/381.jpg,64,Reighlyn,1,2020-11-20_15h26.21.828,test3,2020.2.4,MacIntel,60,,,z,2.7614,0,63,63,63,1
,,,,z,1.48408,0,64,64,64,1,paints/images/220.jpg,paints/images/70.jpg,65,Reighlyn,1,2020-11-20_15h26.21.828,test3,2020.2.4,MacIntel,60,,,z,1.48408,0,64,64,64,1
,,,,z,3.73229,0,65,65,65,1,paints/images/337.jpg,paints/images/339.jpg,66,Reighlyn,1,2020-11-20_15h26.21.828,test3,2020.2.4,MacIntel,60,,,z,3.73229,0,65,65,65,1
,,,,z,0.894265,0,66,66,66,1,paints/images/258.jpg,paints/images/85.jpg,67,Reighlyn,1,2020-11-20_15h26.21.828,test3,2020.2.4,MacIntel,60,,,z,0.894265,0,66,66,66,1
,,,,z,2.72543,0,67,67,67,1,paints/images/273.jpg,paints/images/113.jpg,68,Reighlyn,1,2020-11-20_15h26.21.828,test3,2020.2.4,MacIntel,60,,,z,2.72543,0,67,67,67,1
,,,,m,0.86788,0,68,68,68,1,paints/images/353.jpg,paints/images/368.jpg,69,Reighlyn,1,2020-11-20_15h26.21.828,test3,2020.2.4,MacIntel,60,,,m,0.86788,0,68,68,68,1
,,,,z,1.08851,0,69,69,69,1,paints/images/187.jpg,paints/images/86.jpg,70,Reighlyn,1,2020-11-20_15h26.21.828,test3,2020.2.4,MacIntel,60,,,z,1.08851,0,69,69,69,1
,,,,z,1.28735,0,70,70,70,1,paints/images/176.jpg,paints/images/193.jpg,71,Reighlyn,1,2020-11-20_15h26.21.828,test3,2020.2.4,MacIntel,60,,,z,1.28735,0,70,70,70,1
,,,,m,1.13386,0,71,71,71,1,paints/images/175.jpg,paints/images/194.jpg,72,Reighlyn,1,2020-11-20_15h26.21.828,test3,2020.2.4,MacIntel,60,,,m,1.13386,0,71,71,71,1
,,,,z,1.147105,0,72,72,72,1,paints/images/407.jpg,paints/images/81.jpg,73,Reighlyn,1,2020-11-20_15h26.21.828,test3,2020.2.4,MacIntel,60,,,z,1.147105,0,72,72,72,1
,,,,m,1.15036,0,73,73,73,1,paints/images/276.jpg,paints/images/77.jpg,74,Reighlyn,1,2020-11-20_15h26.21.828,test3,2020.2.4,MacIntel,60,,,m,1.15036,0,73,73,73,1
,,,,m,1.304695,0,74,74,74,1,paints/images/291.jpg,paints/images/314.jpg,75,Reighlyn,1,2020-11-20_15h26.21.828,test3,2020.2.4,MacIntel,60,,,m,1.304695,0,74,74,74,1
,,,,z,0.934405,0,75,75,75,1,paints/images/127.jpg,paints/images/36.jpg,76,Reighlyn,1,2020-11-20_15h26.21.828,test3,2020.2.4,MacIntel,60,,,z,0.934405,0,75,75,75,1
,,,,m,0.838785,0,76,76,76,1,paints/images/372.jpg,paints/images/161.jpg,77,Reighlyn,1,2020-11-20_15h26.21.828,test3,2020.2.4,MacIntel,60,,,m,0.838785,0,76,76,76,1
,,,,z,0.950625,0,77,77,77,1,paints/images/283.jpg,paints/images/350.jpg,78,Reighlyn,1,2020-11-20_15h26.21.828,test3,2020.2.4,MacIntel,60,,,z,0.950625,0,77,77,77,1
,,,,z,1.03355,0,78,78,78,1,paints/images/106.jpg,paints/images/68.jpg,79,Reighlyn,1,2020-11-20_15h26.21.828,test3,2020.2.4,MacIntel,60,,,z,1.03355,0,78,78,78,1
,,,,z,1.038185,0,79,79,79,1,paints/images/224.jpg,paints/images/266.jpg,80,Reighlyn,1,2020-11-20_15h26.21.828,test3,2020.2.4,MacIntel,60,,,z,1.038185,0,79,79,79,1
,,,,z,1.400995,0,80,80,80,1,paints/images/375.jpg,paints/images/264.jpg,81,Reighlyn,1,2020-11-20_15h26.21.828,test3,2020.2.4,MacIntel,60,,,z,1.400995,0,80,80,80,1
,,,,m,1.426595,0,81,81,81,1,paints/images/47.jpg,paints/images/87.jpg,82,Reighlyn,1,2020-11-20_15h26.21.828,test3,2020.2.4,MacIntel,60,,,m,1.426595,0,81,81,81,1
,,,,m,2.237855,0,82,82,82,1,paints/images/38.jpg,paints/images/298.jpg,83,Reighlyn,1,2020-11-20_15h26.21.828,test3,2020.2.4,MacIntel,60,,,m,2.237855,0,82,82,82,1
,,,,z,0.81682,0,83,83,83,1,paints/images/161.jpg,paints/images/28.jpg,84,Reighlyn,1,2020-11-20_15h26.21.828,test3,2020.2.4,MacIntel,60,,,z,0.81682,0,83,83,83,1
,,,,m,1.097265,0,84,84,84,1,paints/images/298.jpg,paints/images/345.jpg,85,Reighlyn,1,2020-11-20_15h26.21.828,test3,2020.2.4,MacIntel,60,,,m,1.097265,0,84,84,84,1
,,,,z,0.729315,0,85,85,85,1,paints/images/163.jpg,paints/images/205.jpg,86,Reighlyn,1,2020-11-20_15h26.21.828,test3,2020.2.4,MacIntel,60,,,z,0.729315,0,85,85,85,1
,,,,z,1.21767,0,86,86,86,1,paints/images/121.jpg,paints/images/252.jpg,87,Reighlyn,1,2020-11-20_15h26.21.828,test3,2020.2.4,MacIntel,60,,,z,1.21767,0,86,86,86,1
,,,,z,1.250595,0,87,87,87,1,paints/images/247.jpg,paints/images/95.jpg,88,Reighlyn,1,2020-11-20_15h26.21.828,test3,2020.2.4,MacIntel,60,,,z,1.250595,0,87,87,87,1
,,,,m,1.55162,0,88,88,88,1,paints/images/321.jpg,paints/images/150.jpg,89,Reighlyn,1,2020-11-20_15h26.21.828,test3,2020.2.4,MacIntel,60,,,m,1.55162,0,88,88,88,1
,,,,z,1.372035,0,89,89,89,1,paints/images/46.jpg,paints/images/226.jpg,90,Reighlyn,1,2020-11-20_15h26.21.828,test3,2020.2.4,MacIntel,60,,,z,1.372035,0,89,89,89,1
,,,,m,1.415905,0,90,90,90,1,paints/images/154.jpg,paints/images/263.jpg,91,Reighlyn,1,2020-11-20_15h26.21.828,test3,2020.2.4,MacIntel,60,,,m,1.415905,0,90,90,90,1
,,,,m,1.069165,0,91,91,91,1,paints/images/191.jpg,paints/images/158.jpg,92,Reighlyn,1,2020-11-20_15h26.21.828,test3,2020.2.4,MacIntel,60,,,m,1.069165,0,91,91,91,1
,,,,z,1.069175,0,92,92,92,1,paints/images/49.jpg,paints/images/227.jpg,93,Reighlyn,1,2020-11-20_15h26.21.828,test3,2020.2.4,MacIntel,60,,,z,1.069175,0,92,92,92,1
,,,,z,1.142165,0,93,93,93,1,paints/images/124.jpg,paints/images/89.jpg,94,Reighlyn,1,2020-11-20_15h26.21.828,test3,2020.2.4,MacIntel,60,,,z,1.142165,0,93,93,93,1
,,,,z,1.060595,0,94,94,94,1,paints/images/390.jpg,paints/images/43.jpg,95,Reighlyn,1,2020-11-20_15h26.21.828,test3,2020.2.4,MacIntel,60,,,z,1.060595,0,94,94,94,1
,,,,z,1.28727,0,95,95,95,1,paints/images/42.jpg,paints/images/268.jpg,96,Reighlyn,1,2020-11-20_15h26.21.828,test3,2020.2.4,MacIntel,60,,,z,1.28727,0,95,95,95,1
,,,,z,1.319435,0,96,96,96,1,paints/images/113.jpg,paints/images/386.jpg,97,Reighlyn,1,2020-11-20_15h26.21.828,test3,2020.2.4,MacIntel,60,,,z,1.319435,0,96,96,96,1
,,,,m,1.38016,0,97,97,97,1,paints/images/287.jpg,paints/images/307.jpg,98,Reighlyn,1,2020-11-20_15h26.21.828,test3,2020.2.4,MacIntel,60,,,m,1.38016,0,97,97,97,1
,,,,z,2.21587,0,98,98,98,1,paints/images/134.jpg,paints/images/300.jpg,99,Reighlyn,1,2020-11-20_15h26.21.828,test3,2020.2.4,MacIntel,60,,,z,2.21587,0,98,98,98,1
,,,,m,1.416615,0,99,99,99,1,paints/images/60.jpg,paints/images/206.jpg,100,Reighlyn,1,2020-11-20_15h26.21.828,test3,2020.2.4,MacIntel,60,,,m,1.416615,0,99,99,99,1
,,,,m,2.184165,0,100,100,100,1,paints/images/384.jpg,paints/images/335.jpg,101,Reighlyn,1,2020-11-20_15h26.21.828,test3,2020.2.4,MacIntel,60,,,m,2.184165,0,100,100,100,1
,,,,z,0.611775,0,101,101,101,1,paints/images/326.jpg,paints/images/139.jpg,102,Reighlyn,1,2020-11-20_15h26.21.828,test3,2020.2.4,MacIntel,60,,,z,0.611775,0,101,101,101,1
,,,,m,1.06661,0,102,102,102,1,paints/images/166.jpg,paints/images/374.jpg,103,Reighlyn,1,2020-11-20_15h26.21.828,test3,2020.2.4,MacIntel,60,,,m,1.06661,0,102,102,102,1
,,,,z,0.913655,0,103,103,103,1,paints/images/360.jpg,paints/images/10.jpg,104,Reighlyn,1,2020-11-20_15h26.21.828,test3,2020.2.4,MacIntel,60,,,z,0.913655,0,103,103,103,1
,,,,z,1.034495,0,104,104,104,1,paints/images/158.jpg,paints/images/149.jpg,105,Reighlyn,1,2020-11-20_15h26.21.828,test3,2020.2.4,MacIntel,60,,,z,1.034495,0,104,104,104,1
,,,,z,0.895925,0,105,105,105,1,paints/images/159.jpg,paints/images/362.jpg,106,Reighlyn,1,2020-11-20_15h26.21.828,test3,2020.2.4,MacIntel,60,,,z,0.895925,0,105,105,105,1
,,,,m,0.95479,0,106,106,106,1,paints/images/214.jpg,paints/images/116.jpg,107,Reighlyn,1,2020-11-20_15h26.21.828,test3,2020.2.4,MacIntel,60,,,m,0.95479,0,106,106,106,1
,,,,m,0.96294,0,107,107,107,1,paints/images/256.jpg,paints/images/323.jpg,108,Reighlyn,1,2020-11-20_15h26.21.828,test3,2020.2.4,MacIntel,60,,,m,0.96294,0,107,107,107,1
,,,,m,1.449175,0,108,108,108,1,paints/images/36.jpg,paints/images/157.jpg,109,Reighlyn,1,2020-11-20_15h26.21.828,test3,2020.2.4,MacIntel,60,,,m,1.449175,0,108,108,108,1
,,,,m,1.784165,0,109,109,109,1,paints/images/101.jpg,paints/images/126.jpg,110,Reighlyn,1,2020-11-20_15h26.21.828,test3,2020.2.4,MacIntel,60,,,m,1.784165,0,109,109,109,1
,,,,z,0.96602,0,110,110,110,1,paints/images/265.jpg,paints/images/35.jpg,111,Reighlyn,1,2020-11-20_15h26.21.828,test3,2020.2.4,MacIntel,60,,,z,0.96602,0,110,110,110,1
,,,,m,1.300765,0,111,111,111,1,paints/images/392.jpg,paints/images/233.jpg,112,Reighlyn,1,2020-11-20_15h26.21.828,test3,2020.2.4,MacIntel,60,,,m,1.300765,0,111,111,111,1
,,,,z,1.09952,0,112,112,112,1,paints/images/251.jpg,paints/images/12.jpg,113,Reighlyn,1,2020-11-20_15h26.21.828,test3,2020.2.4,MacIntel,60,,,z,1.09952,0,112,112,112,1
,,,,m,0.850575,0,113,113,113,1,paints/images/12.jpg,paints/images/144.jpg,114,Reighlyn,1,2020-11-20_15h26.21.828,test3,2020.2.4,MacIntel,60,,,m,0.850575,0,113,113,113,1
,,,,z,2.39094,0,114,114,114,1,paints/images/133.jpg,paints/images/331.jpg,115,Reighlyn,1,2020-11-20_15h26.21.828,test3,2020.2.4,MacIntel,60,,,z,2.39094,0,114,114,114,1
,,,,m,0.89925,0,115,115,115,1,paints/images/383.jpg,paints/images/99.jpg,116,Reighlyn,1,2020-11-20_15h26.21.828,test3,2020.2.4,MacIntel,60,,,m,0.89925,0,115,115,115,1
,,,,z,1.534325,0,116,116,116,1,paints/images/211.jpg,paints/images/303.jpg,117,Reighlyn,1,2020-11-20_15h26.21.828,test3,2020.2.4,MacIntel,60,,,z,1.534325,0,116,116,116,1
,,,,m,4.28773,0,117,117,117,1,paints/images/201.jpg,paints/images/238.jpg,118,Reighlyn,1,2020-11-20_15h26.21.828,test3,2020.2.4,MacIntel,60,,,m,4.28773,0,117,117,117,1
,,,,m,1.064705,0,118,118,118,1,paints/images/205.jpg,paints/images/102.jpg,119,Reighlyn,1,2020-11-20_15h26.21.828,test3,2020.2.4,MacIntel,60,,,m,1.064705,0,118,118,118,1
,,,,z,2.319455,0,119,119,119,1,paints/images/270.jpg,paints/images/322.jpg,120,Reighlyn,1,2020-11-20_15h26.21.828,test3,2020.2.4,MacIntel,60,,,z,2.319455,0,119,119,119,1
,,,,m,1.553995,0,120,120,120,1,paints/images/341.jpg,paints/images/248.jpg,121,Reighlyn,1,2020-11-20_15h26.21.828,test3,2020.2.4,MacIntel,60,,,m,1.553995,0,120,120,120,1
,,,,m,1.112505,0,121,121,121,1,paints/images/141.jpg,paints/images/94.jpg,122,Reighlyn,1,2020-11-20_15h26.21.828,test3,2020.2.4,MacIntel,60,,,m,1.112505,0,121,121,121,1
,,,,z,1.175075,0,122,122,122,1,paints/images/83.jpg,paints/images/327.jpg,123,Reighlyn,1,2020-11-20_15h26.21.828,test3,2020.2.4,MacIntel,60,,,z,1.175075,0,122,122,122,1
,,,,m,1.27913,0,123,123,123,1,paints/images/327.jpg,paints/images/110.jpg,124,Reighlyn,1,2020-11-20_15h26.21.828,test3,2020.2.4,MacIntel,60,,,m,1.27913,0,123,123,123,1
,,,,z,1.181035,0,124,124,124,1,paints/images/157.jpg,paints/images/79.jpg,125,Reighlyn,1,2020-11-20_15h26.21.828,test3,2020.2.4,MacIntel,60,,,z,1.181035,0,124,124,124,1
,,,,z,1.767315,0,125,125,125,1,paints/images/193.jpg,paints/images/74.jpg,126,Reighlyn,1,2020-11-20_15h26.21.828,test3,2020.2.4,MacIntel,60,,,z,1.767315,0,125,125,125,1
,,,,m,1.36923,0,126,126,126,1,paints/images/140.jpg,paints/images/292.jpg,127,Reighlyn,1,2020-11-20_15h26.21.828,test3,2020.2.4,MacIntel,60,,,m,1.36923,0,126,126,126,1
,,,,z,3.258675,0,127,127,127,1,paints/images/107.jpg,paints/images/92.jpg,128,Reighlyn,1,2020-11-20_15h26.21.828,test3,2020.2.4,MacIntel,60,,,z,3.258675,0,127,127,127,1
,,,,m,0.79958,0,128,128,128,1,paints/images/7.jpg,paints/images/56.jpg,129,Reighlyn,1,2020-11-20_15h26.21.828,test3,2020.2.4,MacIntel,60,,,m,0.79958,0,128,128,128,1
,,,,z,1.38478,0,129,129,129,1,paints/images/177.jpg,paints/images/141.jpg,130,Reighlyn,1,2020-11-20_15h26.21.828,test3,2020.2.4,MacIntel,60,,,z,1.38478,0,129,129,129,1
,,,,z,1.65558,0,130,130,130,1,paints/images/244.jpg,paints/images/250.jpg,131,Reighlyn,1,2020-11-20_15h26.21.828,test3,2020.2.4,MacIntel,60,,,z,1.65558,0,130,130,130,1
,,,,z,1.4936,0,131,131,131,1,paints/images/253.jpg,paints/images/8.jpg,132,Reighlyn,1,2020-11-20_15h26.21.828,test3,2020.2.4,MacIntel,60,,,z,1.4936,0,131,131,131,1
,,,,m,0.91392,0,132,132,132,1,paints/images/136.jpg,paints/images/108.jpg,133,Reighlyn,1,2020-11-20_15h26.21.828,test3,2020.2.4,MacIntel,60,,,m,0.91392,0,132,132,132,1
,,,,z,1.335165,0,133,133,133,1,paints/images/165.jpg,paints/images/147.jpg,134,Reighlyn,1,2020-11-20_15h26.21.828,test3,2020.2.4,MacIntel,60,,,z,1.335165,0,133,133,133,1
,,,,z,1.20919,0,134,134,134,1,paints/images/39.jpg,paints/images/387.jpg,135,Reighlyn,1,2020-11-20_15h26.21.828,test3,2020.2.4,MacIntel,60,,,z,1.20919,0,134,134,134,1
,,,,z,1.01471,0,135,135,135,1,paints/images/271.jpg,paints/images/125.jpg,136,Reighlyn,1,2020-11-20_15h26.21.828,test3,2020.2.4,MacIntel,60,,,z,1.01471,0,135,135,135,1
,,,,m,1.32864,0,136,136,136,1,paints/images/90.jpg,paints/images/130.jpg,137,Reighlyn,1,2020-11-20_15h26.21.828,test3,2020.2.4,MacIntel,60,,,m,1.32864,0,136,136,136,1
,,,,z,1.766845,0,137,137,137,1,paints/images/362.jpg,paints/images/60.jpg,138,Reighlyn,1,2020-11-20_15h26.21.828,test3,2020.2.4,MacIntel,60,,,z,1.766845,0,137,137,137,1
,,,,z,1.353345,0,138,138,138,1,paints/images/218.jpg,paints/images/153.jpg,139,Reighlyn,1,2020-11-20_15h26.21.828,test3,2020.2.4,MacIntel,60,,,z,1.353345,0,138,138,138,1
,,,,z,1.490825,0,139,139,139,1,paints/images/18.jpg,paints/images/324.jpg,140,Reighlyn,1,2020-11-20_15h26.21.828,test3,2020.2.4,MacIntel,60,,,z,1.490825,0,139,139,139,1
,,,,m,1.253065,0,140,140,140,1,paints/images/29.jpg,paints/images/120.jpg,141,Reighlyn,1,2020-11-20_15h26.21.828,test3,2020.2.4,MacIntel,60,,,m,1.253065,0,140,140,140,1
,,,,z,0.665325,0,141,141,141,1,paints/images/155.jpg,paints/images/142.jpg,142,Reighlyn,1,2020-11-20_15h26.21.828,test3,2020.2.4,MacIntel,60,,,z,0.665325,0,141,141,141,1
,,,,m,0.934665,0,142,142,142,1,paints/images/148.jpg,paints/images/396.jpg,143,Reighlyn,1,2020-11-20_15h26.21.828,test3,2020.2.4,MacIntel,60,,,m,0.934665,0,142,142,142,1
,,,,m,0.98363,0,143,143,143,1,paints/images/373.jpg,paints/images/218.jpg,144,Reighlyn,1,2020-11-20_15h26.21.828,test3,2020.2.4,MacIntel,60,,,m,0.98363,0,143,143,143,1
,,,,m,1.31654,0,144,144,144,1,paints/images/231.jpg,paints/images/73.jpg,145,Reighlyn,1,2020-11-20_15h26.21.828,test3,2020.2.4,MacIntel,60,,,m,1.31654,0,144,144,144,1
,,,,z,0.98269,0,145,145,145,1,paints/images/240.jpg,paints/images/356.jpg,146,Reighlyn,1,2020-11-20_15h26.21.828,test3,2020.2.4,MacIntel,60,,,z,0.98269,0,145,145,145,1
,,,,m,1.600045,0,146,146,146,1,paints/images/332.jpg,paints/images/347.jpg,147,Reighlyn,1,2020-11-20_15h26.21.828,test3,2020.2.4,MacIntel,60,,,m,1.600045,0,146,146,146,1
,,,,m,0.916865,0,147,147,147,1,paints/images/254.jpg,paints/images/310.jpg,148,Reighlyn,1,2020-11-20_15h26.21.828,test3,2020.2.4,MacIntel,60,,,m,0.916865,0,147,147,147,1
,,,,z,1.00237,0,148,148,148,1,paints/images/405.jpg,paints/images/385.jpg,149,Reighlyn,1,2020-11-20_15h26.21.828,test3,2020.2.4,MacIntel,60,,,z,1.00237,0,148,148,148,1
,,,,z,1.04968,0,149,149,149,1,paints/images/345.jpg,paints/images/274.jpg,150,Reighlyn,1,2020-11-20_15h26.21.828,test3,2020.2.4,MacIntel,60,,,z,1.04968,0,149,149,149,1
,,,,z,1.000635,0,150,150,150,1,paints/images/363.jpg,paints/images/18.jpg,151,Reighlyn,1,2020-11-20_15h26.21.828,test3,2020.2.4,MacIntel,60,,,z,1.000635,0,150,150,150,1
,,,,m,0.89952,0,151,151,151,1,paints/images/37.jpg,paints/images/53.jpg,152,Reighlyn,1,2020-11-20_15h26.21.828,test3,2020.2.4,MacIntel,60,,,m,0.89952,0,151,151,151,1
,,,,m,1.66779,0,152,152,152,1,paints/images/315.jpg,paints/images/319.jpg,153,Reighlyn,1,2020-11-20_15h26.21.828,test3,2020.2.4,MacIntel,60,,,m,1.66779,0,152,152,152,1
,,,,m,1.265645,0,153,153,153,1,paints/images/74.jpg,paints/images/403.jpg,154,Reighlyn,1,2020-11-20_15h26.21.828,test3,2020.2.4,MacIntel,60,,,m,1.265645,0,153,153,153,1
,,,,m,0.999035,0,154,154,154,1,paints/images/156.jpg,paints/images/246.jpg,155,Reighlyn,1,2020-11-20_15h26.21.828,test3,2020.2.4,MacIntel,60,,,m,0.999035,0,154,154,154,1
,,,,z,1.02686,0,155,155,155,1,paints/images/285.jpg,paints/images/270.jpg,156,Reighlyn,1,2020-11-20_15h26.21.828,test3,2020.2.4,MacIntel,60,,,z,1.02686,0,155,155,155,1
,,,,z,1.165505,0,156,156,156,1,paints/images/17.jpg,paints/images/398.jpg,157,Reighlyn,1,2020-11-20_15h26.21.828,test3,2020.2.4,MacIntel,60,,,z,1.165505,0,156,156,156,1
,,,,z,1.03517,0,157,157,157,1,paints/images/335.jpg,paints/images/27.jpg,158,Reighlyn,1,2020-11-20_15h26.21.828,test3,2020.2.4,MacIntel,60,,,z,1.03517,0,157,157,157,1
,,,,z,1.437335,0,158,158,158,1,paints/images/350.jpg,paints/images/156.jpg,159,Reighlyn,1,2020-11-20_15h26.21.828,test3,2020.2.4,MacIntel,60,,,z,1.437335,0,158,158,158,1
,,,,m,0.91304,0,159,159,159,1,paints/images/31.jpg,paints/images/231.jpg,160,Reighlyn,1,2020-11-20_15h26.21.828,test3,2020.2.4,MacIntel,60,,,m,0.91304,0,159,159,159,1
,,,,z,0.88577,0,160,160,160,1,paints/images/114.jpg,paints/images/333.jpg,161,Reighlyn,1,2020-11-20_15h26.21.828,test3,2020.2.4,MacIntel,60,,,z,0.88577,0,160,160,160,1
,,,,m,0.81763,0,161,161,161,1,paints/images/79.jpg,paints/images/408.jpg,162,Reighlyn,1,2020-11-20_15h26.21.828,test3,2020.2.4,MacIntel,60,,,m,0.81763,0,161,161,161,1
,,,,m,1.068265,0,162,162,162,1,paints/images/338.jpg,paints/images/279.jpg,163,Reighlyn,1,2020-11-20_15h26.21.828,test3,2020.2.4,MacIntel,60,,,m,1.068265,0,162,162,162,1
,,,,z,2.03794,0,163,163,163,1,paints/images/354.jpg,paints/images/304.jpg,164,Reighlyn,1,2020-11-20_15h26.21.828,test3,2020.2.4,MacIntel,60,,,z,2.03794,0,163,163,163,1
,,,,z,1.113255,0,164,164,164,1,paints/images/128.jpg,paints/images/276.jpg,165,Reighlyn,1,2020-11-20_15h26.21.828,test3,2020.2.4,MacIntel,60,,,z,1.113255,0,164,164,164,1
,,,,m,1.8538,0,165,165,165,1,paints/images/35.jpg,paints/images/188.jpg,166,Reighlyn,1,2020-11-20_15h26.21.828,test3,2020.2.4,MacIntel,60,,,m,1.8538,0,165,165,165,1
,,,,z,1.34184,0,166,166,166,1,paints/images/16.jpg,paints/images/29.jpg,167,Reighlyn,1,2020-11-20_15h26.21.828,test3,2020.2.4,MacIntel,60,,,z,1.34184,0,166,166,166,1
,,,,m,0.8658,0,167,167,167,1,paints/images/119.jpg,paints/images/251.jpg,168,Reighlyn,1,2020-11-20_15h26.21.828,test3,2020.2.4,MacIntel,60,,,m,0.8658,0,167,167,167,1
,,,,m,1.034115,0,168,168,168,1,paints/images/207.jpg,paints/images/65.jpg,169,Reighlyn,1,2020-11-20_15h26.21.828,test3,2020.2.4,MacIntel,60,,,m,1.034115,0,168,168,168,1
,,,,z,1.25101,0,169,169,169,1,paints/images/173.jpg,paints/images/373.jpg,170,Reighlyn,1,2020-11-20_15h26.21.828,test3,2020.2.4,MacIntel,60,,,z,1.25101,0,169,169,169,1
,,,,z,0.779435,0,170,170,170,1,paints/images/135.jpg,paints/images/196.jpg,171,Reighlyn,1,2020-11-20_15h26.21.828,test3,2020.2.4,MacIntel,60,,,z,0.779435,0,170,170,170,1
,,,,m,1.37007,0,171,171,171,1,paints/images/55.jpg,paints/images/316.jpg,172,Reighlyn,1,2020-11-20_15h26.21.828,test3,2020.2.4,MacIntel,60,,,m,1.37007,0,171,171,171,1
,,,,z,1.57772,0,172,172,172,1,paints/images/343.jpg,paints/images/383.jpg,173,Reighlyn,1,2020-11-20_15h26.21.828,test3,2020.2.4,MacIntel,60,,,z,1.57772,0,172,172,172,1
,,,,z,1.41865,0,173,173,173,1,paints/images/203.jpg,paints/images/186.jpg,174,Reighlyn,1,2020-11-20_15h26.21.828,test3,2020.2.4,MacIntel,60,,,z,1.41865,0,173,173,173,1
,,,,z,1.396095,0,174,174,174,1,paints/images/123.jpg,paints/images/128.jpg,175,Reighlyn,1,2020-11-20_15h26.21.828,test3,2020.2.4,MacIntel,60,,,z,1.396095,0,174,174,174,1
,,,,m,1.44277,0,175,175,175,1,paints/images/391.jpg,paints/images/208.jpg,176,Reighlyn,1,2020-11-20_15h26.21.828,test3,2020.2.4,MacIntel,60,,,m,1.44277,0,175,175,175,1
,,,,m,3.55361,0,176,176,176,1,paints/images/105.jpg,paints/images/313.jpg,177,Reighlyn,1,2020-11-20_15h26.21.828,test3,2020.2.4,MacIntel,60,,,m,3.55361,0,176,176,176,1
,,,,z,1.404685,0,177,177,177,1,paints/images/184.jpg,paints/images/69.jpg,178,Reighlyn,1,2020-11-20_15h26.21.828,test3,2020.2.4,MacIntel,60,,,z,1.404685,0,177,177,177,1
,,,,z,1.07905,0,178,178,178,1,paints/images/63.jpg,paints/images/191.jpg,179,Reighlyn,1,2020-11-20_15h26.21.828,test3,2020.2.4,MacIntel,60,,,z,1.07905,0,178,178,178,1
,,,,m,2.315115,0,179,179,179,1,paints/images/85.jpg,paints/images/390.jpg,180,Reighlyn,1,2020-11-20_15h26.21.828,test3,2020.2.4,MacIntel,60,,,m,2.315115,0,179,179,179,1
,,,,m,1.84816,0,180,180,180,1,paints/images/179.jpg,paints/images/177.jpg,181,Reighlyn,1,2020-11-20_15h26.21.828,test3,2020.2.4,MacIntel,60,,,m,1.84816,0,180,180,180,1
,,,,z,0.78327,0,181,181,181,1,paints/images/320.jpg,paints/images/171.jpg,182,Reighlyn,1,2020-11-20_15h26.21.828,test3,2020.2.4,MacIntel,60,,,z,0.78327,0,181,181,181,1
,,,,z,0.849595,0,182,182,182,1,paints/images/77.jpg,paints/images/406.jpg,183,Reighlyn,1,2020-11-20_15h26.21.828,test3,2020.2.4,MacIntel,60,,,z,0.849595,0,182,182,182,1
,,,,m,1.308925,0,183,183,183,1,paints/images/66.jpg,paints/images/255.jpg,184,Reighlyn,1,2020-11-20_15h26.21.828,test3,2020.2.4,MacIntel,60,,,m,1.308925,0,183,183,183,1
,,,,z,1.018135,0,184,184,184,1,paints/images/308.jpg,paints/images/41.jpg,185,Reighlyn,1,2020-11-20_15h26.21.828,test3,2020.2.4,MacIntel,60,,,z,1.018135,0,184,184,184,1
,,,,m,0.915465,0,185,185,185,1,paints/images/260.jpg,paints/images/297.jpg,186,Reighlyn,1,2020-11-20_15h26.21.828,test3,2020.2.4,MacIntel,60,,,m,0.915465,0,185,185,185,1
,,,,m,1.0988,0,186,186,186,1,paints/images/126.jpg,paints/images/273.jpg,187,Reighlyn,1,2020-11-20_15h26.21.828,test3,2020.2.4,MacIntel,60,,,m,1.0988,0,186,186,186,1
,,,,m,1.263325,0,187,187,187,1,paints/images/68.jpg,paints/images/189.jpg,188,Reighlyn,1,2020-11-20_15h26.21.828,test3,2020.2.4,MacIntel,60,,,m,1.263325,0,187,187,187,1
,,,,z,0.95847,0,188,188,188,1,paints/images/144.jpg,paints/images/280.jpg,189,Reighlyn,1,2020-11-20_15h26.21.828,test3,2020.2.4,MacIntel,60,,,z,0.95847,0,188,188,188,1
,,,,z,1.625855,0,189,189,189,1,paints/images/24.jpg,paints/images/389.jpg,190,Reighlyn,1,2020-11-20_15h26.21.828,test3,2020.2.4,MacIntel,60,,,z,1.625855,0,189,189,189,1
,,,,z,0.8339,0,190,190,190,1,paints/images/222.jpg,paints/images/7.jpg,191,Reighlyn,1,2020-11-20_15h26.21.828,test3,2020.2.4,MacIntel,60,,,z,0.8339,0,190,190,190,1
,,,,z,1.454355,0,191,191,191,1,paints/images/282.jpg,paints/images/278.jpg,192,Reighlyn,1,2020-11-20_15h26.21.828,test3,2020.2.4,MacIntel,60,,,z,1.454355,0,191,191,191,1
,,,,z,1.03268,0,192,192,192,1,paints/images/190.jpg,paints/images/61.jpg,193,Reighlyn,1,2020-11-20_15h26.21.828,test3,2020.2.4,MacIntel,60,,,z,1.03268,0,192,192,192,1
,,,,z,1.74083,0,193,193,193,1,paints/images/212.jpg,paints/images/402.jpg,194,Reighlyn,1,2020-11-20_15h26.21.828,test3,2020.2.4,MacIntel,60,,,z,1.74083,0,193,193,193,1
,,,,z,0.214825,0,194,194,194,1,paints/images/80.jpg,paints/images/410.jpg,195,Reighlyn,1,2020-11-20_15h26.21.828,test3,2020.2.4,MacIntel,60,,,z,0.214825,0,194,194,194,1
,,,,m,1.734265,0,195,195,195,1,paints/images/252.jpg,paints/images/382.jpg,196,Reighlyn,1,2020-11-20_15h26.21.828,test3,2020.2.4,MacIntel,60,,,m,1.734265,0,195,195,195,1
,,,,z,1.63297,0,196,196,196,1,paints/images/71.jpg,paints/images/337.jpg,197,Reighlyn,1,2020-11-20_15h26.21.828,test3,2020.2.4,MacIntel,60,,,z,1.63297,0,196,196,196,1
,,,,m,1.05016,0,197,197,197,1,paints/images/264.jpg,paints/images/118.jpg,198,Reighlyn,1,2020-11-20_15h26.21.828,test3,2020.2.4,MacIntel,60,,,m,1.05016,0,197,197,197,1
,,,,m,1.203,0,198,198,198,1,paints/images/180.jpg,paints/images/357.jpg,199,Reighlyn,1,2020-11-20_15h26.21.828,test3,2020.2.4,MacIntel,60,,,m,1.203,0,198,198,198,1
,,,,z,0.94985,0,199,199,199,1,paints/images/357.jpg,paints/images/15.jpg,200,Reighlyn,1,2020-11-20_15h26.21.828,test3,2020.2.4,MacIntel,60,,,z,0.94985,0,199,199,199,1
,,,,z,1.08184,0,200,200,200,1,paints/images/401.jpg,paints/images/220.jpg,201,Reighlyn,1,2020-11-20_15h26.21.828,test3,2020.2.4,MacIntel,60,,,z,1.08184,0,200,200,200,1
,,,,m,1.148445,0,201,201,201,1,paints/images/95.jpg,paints/images/135.jpg,202,Reighlyn,1,2020-11-20_15h26.21.828,test3,2020.2.4,MacIntel,60,,,m,1.148445,0,201,201,201,1
,,,,m,1.7417,0,202,202,202,1,paints/images/152.jpg,paints/images/234.jpg,203,Reighlyn,1,2020-11-20_15h26.21.828,test3,2020.2.4,MacIntel,60,,,m,1.7417,0,202,202,202,1
,,,,z,0.951525,0,203,203,203,1,paints/images/30.jpg,paints/images/88.jpg,204,Reighlyn,1,2020-11-20_15h26.21.828,test3,2020.2.4,MacIntel,60,,,z,0.951525,0,203,203,203,1
,,,,m,2.2842,0,204,204,204,1,paints/images/194.jpg,paints/images/392.jpg,205,Reighlyn,1,2020-11-20_15h26.21.828,test3,2020.2.4,MacIntel,60,,,m,2.2842,0,204,204,204,1
,,,,z,0.75226,0,205,205,205,1,paints/images/351.jpg,paints/images/103.jpg,206,Reighlyn,1,2020-11-20_15h26.21.828,test3,2020.2.4,MacIntel,60,,,z,0.75226,0,205,205,205,1
,,,,z,0.81429,0,206,206,206,1,paints/images/236.jpg,paints/images/369.jpg,207,Reighlyn,1,2020-11-20_15h26.21.828,test3,2020.2.4,MacIntel,60,,,z,0.81429,0,206,206,206,1
,,,,z,1.46816,0,207,207,207,1,paints/images/219.jpg,paints/images/136.jpg,208,Reighlyn,1,2020-11-20_15h26.21.828,test3,2020.2.4,MacIntel,60,,,z,1.46816,0,207,207,207,1
,,,,z,1.124385,0,208,208,208,1,paints/images/306.jpg,paints/images/239.jpg,209,Reighlyn,1,2020-11-20_15h26.21.828,test3,2020.2.4,MacIntel,60,,,z,1.124385,0,208,208,208,1
,,,,m,1.21671,0,209,209,209,1,paints/images/108.jpg,paints/images/259.jpg,210,Reighlyn,1,2020-11-20_15h26.21.828,test3,2020.2.4,MacIntel,60,,,m,1.21671,0,209,209,209,1
,,,,m,2.566465,0,210,210,210,1,paints/images/210.jpg,paints/images/30.jpg,211,Reighlyn,1,2020-11-20_15h26.21.828,test3,2020.2.4,MacIntel,60,,,m,2.566465,0,210,210,210,1
