key_resp.keys,key_resp.rt,key_resp_3.keys,key_resp_3.rt,key_resp_2.keys,key_resp_2.rt,trials.thisRepN,trials.thisTrialN,trials.thisN,trials.thisIndex,trials.ran,image_left,image_right,trial_num,participant,session,date,expName,psychopyVersion,OS,frameRate
space,2.19255,space,0.712705,m,5.573115,0,0,0,0,1,paints/images/344.jpg,paints/images/121.jpg,1,s,001,2020-11-19_22h31.16.699,test3,2020.2.5,Win32,60
,,,,m,1.86624,0,1,1,1,1,paints/images/369.jpg,paints/images/367.jpg,2,s,001,2020-11-19_22h31.16.699,test3,2020.2.5,Win32,60
,,,,z,1.35448,0,2,2,2,1,paints/images/385.jpg,paints/images/253.jpg,3,s,001,2020-11-19_22h31.16.699,test3,2020.2.5,Win32,60
,,,,z,3.526225,0,3,3,3,1,paints/images/230.jpg,paints/images/124.jpg,4,s,001,2020-11-19_22h31.16.699,test3,2020.2.5,Win32,60
,,,,z,1.989495,0,4,4,4,1,paints/images/284.jpg,paints/images/172.jpg,5,s,001,2020-11-19_22h31.16.699,test3,2020.2.5,Win32,60
,,,,z,1.2725,0,5,5,5,1,paints/images/325.jpg,paints/images/5.jpg,6,s,001,2020-11-19_22h31.16.699,test3,2020.2.5,Win32,60
,,,,m,3.03162,0,6,6,6,1,paints/images/2.jpg,paints/images/107.jpg,7,s,001,2020-11-19_22h31.16.699,test3,2020.2.5,Win32,60
,,,,z,3.42372,0,7,7,7,1,paints/images/330.jpg,paints/images/93.jpg,8,s,001,2020-11-19_22h31.16.699,test3,2020.2.5,Win32,60
,,,,z,4.01687,0,8,8,8,1,paints/images/197.jpg,paints/images/20.jpg,9,s,001,2020-11-19_22h31.16.699,test3,2020.2.5,Win32,60
,,,,z,1.411675,0,9,9,9,1,paints/images/233.jpg,paints/images/346.jpg,10,s,001,2020-11-19_22h31.16.699,test3,2020.2.5,Win32,60
,,,,z,2.287715,0,10,10,10,1,paints/images/289.jpg,paints/images/317.jpg,11,s,001,2020-11-19_22h31.16.699,test3,2020.2.5,Win32,60
,,,,m,0.966395,0,11,11,11,1,paints/images/189.jpg,paints/images/230.jpg,12,s,001,2020-11-19_22h31.16.699,test3,2020.2.5,Win32,60
,,,,m,2.045345,0,12,12,12,1,paints/images/28.jpg,paints/images/401.jpg,13,s,001,2020-11-19_22h31.16.699,test3,2020.2.5,Win32,60
,,,,z,3.083075,0,13,13,13,1,paints/images/183.jpg,paints/images/198.jpg,14,s,001,2020-11-19_22h31.16.699,test3,2020.2.5,Win32,60
,,,,m,1.58724,0,14,14,14,1,paints/images/223.jpg,paints/images/249.jpg,15,s,001,2020-11-19_22h31.16.699,test3,2020.2.5,Win32,60
,,,,m,1.49504,0,15,15,15,1,paints/images/331.jpg,paints/images/168.jpg,16,s,001,2020-11-19_22h31.16.699,test3,2020.2.5,Win32,60
,,,,z,2.837415,0,16,16,16,1,paints/images/129.jpg,paints/images/21.jpg,17,s,001,2020-11-19_22h31.16.699,test3,2020.2.5,Win32,60
,,,,m,1.020715,0,17,17,17,1,paints/images/250.jpg,paints/images/290.jpg,18,s,001,2020-11-19_22h31.16.699,test3,2020.2.5,Win32,60
,,,,z,1.12001,0,18,18,18,1,paints/images/342.jpg,paints/images/371.jpg,19,s,001,2020-11-19_22h31.16.699,test3,2020.2.5,Win32,60
,,,,m,1.306005,0,19,19,19,1,paints/images/312.jpg,paints/images/349.jpg,20,s,001,2020-11-19_22h31.16.699,test3,2020.2.5,Win32,60
,,,,z,2.04042,0,20,20,20,1,paints/images/44.jpg,paints/images/23.jpg,21,s,001,2020-11-19_22h31.16.699,test3,2020.2.5,Win32,60
,,,,m,1.233255,0,21,21,21,1,paints/images/209.jpg,paints/images/236.jpg,22,s,001,2020-11-19_22h31.16.699,test3,2020.2.5,Win32,60
,,,,m,1.22285,0,22,22,22,1,paints/images/314.jpg,paints/images/326.jpg,23,s,001,2020-11-19_22h31.16.699,test3,2020.2.5,Win32,60
,,,,m,2.606485,0,23,23,23,1,paints/images/374.jpg,paints/images/397.jpg,24,s,001,2020-11-19_22h31.16.699,test3,2020.2.5,Win32,60
,,,,z,1.40529,0,24,24,24,1,paints/images/355.jpg,paints/images/400.jpg,25,s,001,2020-11-19_22h31.16.699,test3,2020.2.5,Win32,60
,,,,m,1.807725,0,25,25,25,1,paints/images/346.jpg,paints/images/223.jpg,26,s,001,2020-11-19_22h31.16.699,test3,2020.2.5,Win32,60
,,,,z,1.75378,0,26,26,26,1,paints/images/292.jpg,paints/images/122.jpg,27,s,001,2020-11-19_22h31.16.699,test3,2020.2.5,Win32,60
,,,,z,4.41735,0,27,27,27,1,paints/images/81.jpg,paints/images/294.jpg,28,s,001,2020-11-19_22h31.16.699,test3,2020.2.5,Win32,60
,,,,z,0.99388,0,28,28,28,1,paints/images/359.jpg,paints/images/370.jpg,29,s,001,2020-11-19_22h31.16.699,test3,2020.2.5,Win32,60
,,,,z,3.230935,0,29,29,29,1,paints/images/88.jpg,paints/images/119.jpg,30,s,001,2020-11-19_22h31.16.699,test3,2020.2.5,Win32,60
,,,,z,3.53747,0,30,30,30,1,paints/images/178.jpg,paints/images/47.jpg,31,s,001,2020-11-19_22h31.16.699,test3,2020.2.5,Win32,60
,,,,m,1.9839,0,31,31,31,1,paints/images/139.jpg,paints/images/377.jpg,32,s,001,2020-11-19_22h31.16.699,test3,2020.2.5,Win32,60
,,,,m,1.080785,0,32,32,32,1,paints/images/142.jpg,paints/images/379.jpg,33,s,001,2020-11-19_22h31.16.699,test3,2020.2.5,Win32,60
,,,,m,1.50165,0,33,33,33,1,paints/images/366.jpg,paints/images/22.jpg,34,s,001,2020-11-19_22h31.16.699,test3,2020.2.5,Win32,60
,,,,z,1.040245,0,34,34,34,1,paints/images/277.jpg,paints/images/365.jpg,35,s,001,2020-11-19_22h31.16.699,test3,2020.2.5,Win32,60
,,,,m,2.655825,0,35,35,35,1,paints/images/406.jpg,paints/images/388.jpg,36,s,001,2020-11-19_22h31.16.699,test3,2020.2.5,Win32,60
,,,,m,1.91127,0,36,36,36,1,paints/images/389.jpg,paints/images/104.jpg,37,s,001,2020-11-19_22h31.16.699,test3,2020.2.5,Win32,60
,,,,z,1.35275,0,37,37,37,1,paints/images/20.jpg,paints/images/84.jpg,38,s,001,2020-11-19_22h31.16.699,test3,2020.2.5,Win32,60
,,,,m,1.67095,0,38,38,38,1,paints/images/169.jpg,paints/images/163.jpg,39,s,001,2020-11-19_22h31.16.699,test3,2020.2.5,Win32,60
,,,,m,1.86543,0,39,39,39,1,paints/images/58.jpg,paints/images/359.jpg,40,s,001,2020-11-19_22h31.16.699,test3,2020.2.5,Win32,60
,,,,m,0.679095,0,40,40,40,1,paints/images/376.jpg,paints/images/256.jpg,41,s,001,2020-11-19_22h31.16.699,test3,2020.2.5,Win32,60
,,,,m,0.90356,0,41,41,41,1,paints/images/33.jpg,paints/images/261.jpg,42,s,001,2020-11-19_22h31.16.699,test3,2020.2.5,Win32,60
,,,,m,1.75404,0,42,42,42,1,paints/images/294.jpg,paints/images/96.jpg,43,s,001,2020-11-19_22h31.16.699,test3,2020.2.5,Win32,60
,,,,m,1.136585,0,43,43,43,1,paints/images/269.jpg,paints/images/293.jpg,44,s,001,2020-11-19_22h31.16.699,test3,2020.2.5,Win32,60
,,,,m,1.024725,0,44,44,44,1,paints/images/199.jpg,paints/images/284.jpg,45,s,001,2020-11-19_22h31.16.699,test3,2020.2.5,Win32,60
,,,,z,1.416,0,45,45,45,1,paints/images/255.jpg,paints/images/281.jpg,46,s,001,2020-11-19_22h31.16.699,test3,2020.2.5,Win32,60
,,,,m,1.476335,0,46,46,46,1,paints/images/382.jpg,paints/images/4.jpg,47,s,001,2020-11-19_22h31.16.699,test3,2020.2.5,Win32,60
,,,,z,1.19091,0,47,47,47,1,paints/images/111.jpg,paints/images/83.jpg,48,s,001,2020-11-19_22h31.16.699,test3,2020.2.5,Win32,60
,,,,m,0.951375,0,48,48,48,1,paints/images/239.jpg,paints/images/151.jpg,49,s,001,2020-11-19_22h31.16.699,test3,2020.2.5,Win32,60
,,,,m,0.99418,0,49,49,49,1,paints/images/84.jpg,paints/images/341.jpg,50,s,001,2020-11-19_22h31.16.699,test3,2020.2.5,Win32,60
,,,,z,2.175635,0,50,50,50,1,paints/images/317.jpg,paints/images/159.jpg,51,s,001,2020-11-19_22h31.16.699,test3,2020.2.5,Win32,60
,,,,m,2.21469,0,51,51,51,1,paints/images/153.jpg,paints/images/212.jpg,52,s,001,2020-11-19_22h31.16.699,test3,2020.2.5,Win32,60
,,,,m,0.98332,0,52,52,52,1,paints/images/5.jpg,paints/images/361.jpg,53,s,001,2020-11-19_22h31.16.699,test3,2020.2.5,Win32,60
,,,,z,0.96151,0,53,53,53,1,paints/images/319.jpg,paints/images/178.jpg,54,s,001,2020-11-19_22h31.16.699,test3,2020.2.5,Win32,60
,,,,m,1.7254,0,54,54,54,1,paints/images/118.jpg,paints/images/275.jpg,55,s,001,2020-11-19_22h31.16.699,test3,2020.2.5,Win32,60
,,,,m,1.655065,0,55,55,55,1,paints/images/213.jpg,paints/images/312.jpg,56,s,001,2020-11-19_22h31.16.699,test3,2020.2.5,Win32,60
,,,,m,1.277955,0,56,56,56,1,paints/images/4.jpg,paints/images/131.jpg,57,s,001,2020-11-19_22h31.16.699,test3,2020.2.5,Win32,60
,,,,m,2.739765,0,57,57,57,1,paints/images/206.jpg,paints/images/391.jpg,58,s,001,2020-11-19_22h31.16.699,test3,2020.2.5,Win32,60
,,,,m,1.966355,0,58,58,58,1,paints/images/349.jpg,paints/images/240.jpg,59,s,001,2020-11-19_22h31.16.699,test3,2020.2.5,Win32,60
,,,,m,1.0404,0,59,59,59,1,paints/images/174.jpg,paints/images/197.jpg,60,s,001,2020-11-19_22h31.16.699,test3,2020.2.5,Win32,60
,,,,m,1.349975,0,60,60,60,1,paints/images/93.jpg,paints/images/330.jpg,61,s,001,2020-11-19_22h31.16.699,test3,2020.2.5,Win32,60
,,,,z,2.018915,0,61,61,61,1,paints/images/262.jpg,paints/images/225.jpg,62,s,001,2020-11-19_22h31.16.699,test3,2020.2.5,Win32,60
,,,,m,1.186505,0,62,62,62,1,paints/images/322.jpg,paints/images/267.jpg,63,s,001,2020-11-19_22h31.16.699,test3,2020.2.5,Win32,60
,,,,z,0.857515,0,63,63,63,1,paints/images/104.jpg,paints/images/140.jpg,64,s,001,2020-11-19_22h31.16.699,test3,2020.2.5,Win32,60
,,,,m,1.662845,0,64,64,64,1,paints/images/400.jpg,paints/images/355.jpg,65,s,001,2020-11-19_22h31.16.699,test3,2020.2.5,Win32,60
,,,,z,1.437905,0,65,65,65,1,paints/images/89.jpg,paints/images/380.jpg,66,s,001,2020-11-19_22h31.16.699,test3,2020.2.5,Win32,60
,,,,m,2.941135,0,66,66,66,1,paints/images/181.jpg,paints/images/195.jpg,67,s,001,2020-11-19_22h31.16.699,test3,2020.2.5,Win32,60
,,,,m,1.84209,0,67,67,67,1,paints/images/130.jpg,paints/images/155.jpg,68,s,001,2020-11-19_22h31.16.699,test3,2020.2.5,Win32,60
,,,,z,1.233535,0,68,68,68,1,paints/images/15.jpg,paints/images/55.jpg,69,s,001,2020-11-19_22h31.16.699,test3,2020.2.5,Win32,60
,,,,z,1.221125,0,69,69,69,1,paints/images/393.jpg,paints/images/34.jpg,70,s,001,2020-11-19_22h31.16.699,test3,2020.2.5,Win32,60
,,,,m,0.972135,0,70,70,70,1,paints/images/192.jpg,paints/images/351.jpg,71,s,001,2020-11-19_22h31.16.699,test3,2020.2.5,Win32,60
,,,,m,1.39744,0,71,71,71,1,paints/images/57.jpg,paints/images/363.jpg,72,s,001,2020-11-19_22h31.16.699,test3,2020.2.5,Win32,60
,,,,m,1.415545,0,72,72,72,1,paints/images/243.jpg,paints/images/295.jpg,73,s,001,2020-11-19_22h31.16.699,test3,2020.2.5,Win32,60
,,,,m,2.921055,0,73,73,73,1,paints/images/196.jpg,paints/images/146.jpg,74,s,001,2020-11-19_22h31.16.699,test3,2020.2.5,Win32,60
,,,,z,1.24774,0,74,74,74,1,paints/images/367.jpg,paints/images/332.jpg,75,s,001,2020-11-19_22h31.16.699,test3,2020.2.5,Win32,60
,,,,z,0.98542,0,75,75,75,1,paints/images/249.jpg,paints/images/50.jpg,76,s,001,2020-11-19_22h31.16.699,test3,2020.2.5,Win32,60
,,,,m,2.09504,0,76,76,76,1,paints/images/100.jpg,paints/images/91.jpg,77,s,001,2020-11-19_22h31.16.699,test3,2020.2.5,Win32,60
,,,,m,0.834265,0,77,77,77,1,paints/images/301.jpg,paints/images/154.jpg,78,s,001,2020-11-19_22h31.16.699,test3,2020.2.5,Win32,60
,,,,m,1.72015,0,78,78,78,1,paints/images/13.jpg,paints/images/308.jpg,79,s,001,2020-11-19_22h31.16.699,test3,2020.2.5,Win32,60
,,,,z,1.65968,0,79,79,79,1,paints/images/11.jpg,paints/images/24.jpg,80,s,001,2020-11-19_22h31.16.699,test3,2020.2.5,Win32,60
,,,,m,1.075745,0,80,80,80,1,paints/images/27.jpg,paints/images/114.jpg,81,s,001,2020-11-19_22h31.16.699,test3,2020.2.5,Win32,60
,,,,m,1.39887,0,81,81,81,1,paints/images/334.jpg,paints/images/217.jpg,82,s,001,2020-11-19_22h31.16.699,test3,2020.2.5,Win32,60
,,,,m,2.365465,0,82,82,82,1,paints/images/340.jpg,paints/images/320.jpg,83,s,001,2020-11-19_22h31.16.699,test3,2020.2.5,Win32,60
,,,,z,3.192885,0,83,83,83,1,paints/images/204.jpg,paints/images/52.jpg,84,s,001,2020-11-19_22h31.16.699,test3,2020.2.5,Win32,60
,,,,z,1.09002,0,84,84,84,1,paints/images/266.jpg,paints/images/179.jpg,85,s,001,2020-11-19_22h31.16.699,test3,2020.2.5,Win32,60
,,,,z,1.45333,0,85,85,85,1,paints/images/309.jpg,paints/images/45.jpg,86,s,001,2020-11-19_22h31.16.699,test3,2020.2.5,Win32,60
,,,,m,1.569855,0,86,86,86,1,paints/images/48.jpg,paints/images/352.jpg,87,s,001,2020-11-19_22h31.16.699,test3,2020.2.5,Win32,60
,,,,z,1.07246,0,87,87,87,1,paints/images/238.jpg,paints/images/190.jpg,88,s,001,2020-11-19_22h31.16.699,test3,2020.2.5,Win32,60
,,,,z,1.356555,0,88,88,88,1,paints/images/216.jpg,paints/images/207.jpg,89,s,001,2020-11-19_22h31.16.699,test3,2020.2.5,Win32,60
,,,,m,2.087295,0,89,89,89,1,paints/images/228.jpg,paints/images/315.jpg,90,s,001,2020-11-19_22h31.16.699,test3,2020.2.5,Win32,60
,,,,m,1.448485,0,90,90,90,1,paints/images/368.jpg,paints/images/221.jpg,91,s,001,2020-11-19_22h31.16.699,test3,2020.2.5,Win32,60
,,,,m,2.15057,0,91,91,91,1,paints/images/402.jpg,paints/images/257.jpg,92,s,001,2020-11-19_22h31.16.699,test3,2020.2.5,Win32,60
,,,,z,0.77191,0,92,92,92,1,paints/images/248.jpg,paints/images/296.jpg,93,s,001,2020-11-19_22h31.16.699,test3,2020.2.5,Win32,60
,,,,z,1.218465,0,93,93,93,1,paints/images/234.jpg,paints/images/174.jpg,94,s,001,2020-11-19_22h31.16.699,test3,2020.2.5,Win32,60
,,,,m,2.03328,0,94,94,94,1,paints/images/149.jpg,paints/images/204.jpg,95,s,001,2020-11-19_22h31.16.699,test3,2020.2.5,Win32,60
,,,,z,2.23557,0,95,95,95,1,paints/images/56.jpg,paints/images/117.jpg,96,s,001,2020-11-19_22h31.16.699,test3,2020.2.5,Win32,60
,,,,m,1.159745,0,96,96,96,1,paints/images/146.jpg,paints/images/287.jpg,97,s,001,2020-11-19_22h31.16.699,test3,2020.2.5,Win32,60
,,,,z,0.78218,0,97,97,97,1,paints/images/221.jpg,paints/images/62.jpg,98,s,001,2020-11-19_22h31.16.699,test3,2020.2.5,Win32,60
,,,,m,1.067845,0,98,98,98,1,paints/images/110.jpg,paints/images/321.jpg,99,s,001,2020-11-19_22h31.16.699,test3,2020.2.5,Win32,60
,,,,z,1.464835,0,99,99,99,1,paints/images/67.jpg,paints/images/384.jpg,100,s,001,2020-11-19_22h31.16.699,test3,2020.2.5,Win32,60
,,,,z,0.99609,0,100,100,100,1,paints/images/356.jpg,paints/images/137.jpg,101,s,001,2020-11-19_22h31.16.699,test3,2020.2.5,Win32,60
,,,,m,1.575645,0,101,101,101,1,paints/images/274.jpg,paints/images/232.jpg,102,s,001,2020-11-19_22h31.16.699,test3,2020.2.5,Win32,60
,,,,m,0.881385,0,102,102,102,1,paints/images/70.jpg,paints/images/183.jpg,103,s,001,2020-11-19_22h31.16.699,test3,2020.2.5,Win32,60
,,,,z,1.354365,0,103,103,103,1,paints/images/10.jpg,paints/images/393.jpg,104,s,001,2020-11-19_22h31.16.699,test3,2020.2.5,Win32,60
,,,,z,1.0331,0,104,104,104,1,paints/images/378.jpg,paints/images/181.jpg,105,s,001,2020-11-19_22h31.16.699,test3,2020.2.5,Win32,60
,,,,z,0.85874,0,105,105,105,1,paints/images/303.jpg,paints/images/334.jpg,106,s,001,2020-11-19_22h31.16.699,test3,2020.2.5,Win32,60
,,,,z,2.02486,0,106,106,106,1,paints/images/328.jpg,paints/images/344.jpg,107,s,001,2020-11-19_22h31.16.699,test3,2020.2.5,Win32,60
,,,,z,1.15723,0,107,107,107,1,paints/images/397.jpg,paints/images/318.jpg,108,s,001,2020-11-19_22h31.16.699,test3,2020.2.5,Win32,60
,,,,z,0.82294,0,108,108,108,1,paints/images/365.jpg,paints/images/211.jpg,109,s,001,2020-11-19_22h31.16.699,test3,2020.2.5,Win32,60
,,,,m,0.754755,0,109,109,109,1,paints/images/23.jpg,paints/images/46.jpg,110,s,001,2020-11-19_22h31.16.699,test3,2020.2.5,Win32,60
,,,,m,1.20519,0,110,110,110,1,paints/images/304.jpg,paints/images/11.jpg,111,s,001,2020-11-19_22h31.16.699,test3,2020.2.5,Win32,60
,,,,m,2.27174,0,111,111,111,1,paints/images/226.jpg,paints/images/6.jpg,112,s,001,2020-11-19_22h31.16.699,test3,2020.2.5,Win32,60
,,,,m,2.580225,0,112,112,112,1,paints/images/170.jpg,paints/images/262.jpg,113,s,001,2020-11-19_22h31.16.699,test3,2020.2.5,Win32,60
,,,,z,1.27265,0,113,113,113,1,paints/images/259.jpg,paints/images/343.jpg,114,s,001,2020-11-19_22h31.16.699,test3,2020.2.5,Win32,60
,,,,z,0.848735,0,114,114,114,1,paints/images/19.jpg,paints/images/394.jpg,115,s,001,2020-11-19_22h31.16.699,test3,2020.2.5,Win32,60
,,,,z,1.33675,0,115,115,115,1,paints/images/215.jpg,paints/images/19.jpg,116,s,001,2020-11-19_22h31.16.699,test3,2020.2.5,Win32,60
,,,,z,1.52886,0,116,116,116,1,paints/images/52.jpg,paints/images/360.jpg,117,s,001,2020-11-19_22h31.16.699,test3,2020.2.5,Win32,60
,,,,z,2.080695,0,117,117,117,1,paints/images/99.jpg,paints/images/328.jpg,118,s,001,2020-11-19_22h31.16.699,test3,2020.2.5,Win32,60
,,,,z,1.440835,0,118,118,118,1,paints/images/150.jpg,paints/images/164.jpg,119,s,001,2020-11-19_22h31.16.699,test3,2020.2.5,Win32,60
,,,,m,0.835535,0,119,119,119,1,paints/images/172.jpg,paints/images/213.jpg,120,s,001,2020-11-19_22h31.16.699,test3,2020.2.5,Win32,60
,,,,m,0.97371,0,120,120,120,1,paints/images/50.jpg,paints/images/101.jpg,121,s,001,2020-11-19_22h31.16.699,test3,2020.2.5,Win32,60
,,,,m,2.170465,0,121,121,121,1,paints/images/358.jpg,paints/images/354.jpg,122,s,001,2020-11-19_22h31.16.699,test3,2020.2.5,Win32,60
,,,,z,0.89163,0,122,122,122,1,paints/images/257.jpg,paints/images/265.jpg,123,s,001,2020-11-19_22h31.16.699,test3,2020.2.5,Win32,60
,,,,z,1.021165,0,123,123,123,1,paints/images/91.jpg,paints/images/342.jpg,124,s,001,2020-11-19_22h31.16.699,test3,2020.2.5,Win32,60
,,,,z,1.269265,0,124,124,124,1,paints/images/168.jpg,paints/images/132.jpg,125,s,001,2020-11-19_22h31.16.699,test3,2020.2.5,Win32,60
,,,,m,1.27723,0,125,125,125,1,paints/images/280.jpg,paints/images/98.jpg,126,s,001,2020-11-19_22h31.16.699,test3,2020.2.5,Win32,60
,,,,m,1.955255,0,126,126,126,1,paints/images/261.jpg,paints/images/40.jpg,127,s,001,2020-11-19_22h31.16.699,test3,2020.2.5,Win32,60
,,,,z,0.734925,0,127,127,127,1,paints/images/333.jpg,paints/images/66.jpg,128,s,001,2020-11-19_22h31.16.699,test3,2020.2.5,Win32,60
,,,,z,0.859855,0,128,128,128,1,paints/images/96.jpg,paints/images/82.jpg,129,s,001,2020-11-19_22h31.16.699,test3,2020.2.5,Win32,60
,,,,m,0.82364,0,129,129,129,1,paints/images/32.jpg,paints/images/325.jpg,130,s,001,2020-11-19_22h31.16.699,test3,2020.2.5,Win32,60
,,,,m,2.46407,0,130,130,130,1,paints/images/268.jpg,paints/images/167.jpg,131,s,001,2020-11-19_22h31.16.699,test3,2020.2.5,Win32,60
,,,,z,1.279095,0,131,131,131,1,paints/images/162.jpg,paints/images/25.jpg,132,s,001,2020-11-19_22h31.16.699,test3,2020.2.5,Win32,60
,,,,m,1.37273,0,132,132,132,1,paints/images/53.jpg,paints/images/305.jpg,133,s,001,2020-11-19_22h31.16.699,test3,2020.2.5,Win32,60
,,,,m,1.697045,0,133,133,133,1,paints/images/263.jpg,paints/images/209.jpg,134,s,001,2020-11-19_22h31.16.699,test3,2020.2.5,Win32,60
,,,,m,1.29488,0,134,134,134,1,paints/images/92.jpg,paints/images/364.jpg,135,s,001,2020-11-19_22h31.16.699,test3,2020.2.5,Win32,60
,,,,m,1.07043,0,135,135,135,1,paints/images/61.jpg,paints/images/291.jpg,136,s,001,2020-11-19_22h31.16.699,test3,2020.2.5,Win32,60
,,,,z,1.818925,0,136,136,136,1,paints/images/293.jpg,paints/images/283.jpg,137,s,001,2020-11-19_22h31.16.699,test3,2020.2.5,Win32,60
,,,,z,2.202455,0,137,137,137,1,paints/images/229.jpg,paints/images/173.jpg,138,s,001,2020-11-19_22h31.16.699,test3,2020.2.5,Win32,60
,,,,m,0.902785,0,138,138,138,1,paints/images/41.jpg,paints/images/133.jpg,139,s,001,2020-11-19_22h31.16.699,test3,2020.2.5,Win32,60
,,,,z,3.17985,0,139,139,139,1,paints/images/182.jpg,paints/images/348.jpg,140,s,001,2020-11-19_22h31.16.699,test3,2020.2.5,Win32,60
,,,,m,1.16301,0,140,140,140,1,paints/images/379.jpg,paints/images/228.jpg,141,s,001,2020-11-19_22h31.16.699,test3,2020.2.5,Win32,60
,,,,m,1.450865,0,141,141,141,1,paints/images/188.jpg,paints/images/13.jpg,142,s,001,2020-11-19_22h31.16.699,test3,2020.2.5,Win32,60
,,,,z,0.69655,0,142,142,142,1,paints/images/40.jpg,paints/images/329.jpg,143,s,001,2020-11-19_22h31.16.699,test3,2020.2.5,Win32,60
,,,,z,1.570145,0,143,143,143,1,paints/images/323.jpg,paints/images/165.jpg,144,s,001,2020-11-19_22h31.16.699,test3,2020.2.5,Win32,60
,,,,z,1.57509,0,144,144,144,1,paints/images/78.jpg,paints/images/407.jpg,145,s,001,2020-11-19_22h31.16.699,test3,2020.2.5,Win32,60
,,,,m,3.17022,0,145,145,145,1,paints/images/242.jpg,paints/images/75.jpg,146,s,001,2020-11-19_22h31.16.699,test3,2020.2.5,Win32,60
,,,,m,0.907145,0,146,146,146,1,paints/images/62.jpg,paints/images/187.jpg,147,s,001,2020-11-19_22h31.16.699,test3,2020.2.5,Win32,60
,,,,z,0.975675,0,147,147,147,1,paints/images/131.jpg,paints/images/285.jpg,148,s,001,2020-11-19_22h31.16.699,test3,2020.2.5,Win32,60
,,,,z,1.499165,0,148,148,148,1,paints/images/241.jpg,paints/images/97.jpg,149,s,001,2020-11-19_22h31.16.699,test3,2020.2.5,Win32,60
,,,,m,0.701285,0,149,149,149,1,paints/images/132.jpg,paints/images/289.jpg,150,s,001,2020-11-19_22h31.16.699,test3,2020.2.5,Win32,60
,,,,m,2.295565,0,150,150,150,1,paints/images/185.jpg,paints/images/54.jpg,151,s,001,2020-11-19_22h31.16.699,test3,2020.2.5,Win32,60
,,,,z,0.97973,0,151,151,151,1,paints/images/272.jpg,paints/images/51.jpg,152,s,001,2020-11-19_22h31.16.699,test3,2020.2.5,Win32,60
,,,,m,1.06674,0,152,152,152,1,paints/images/403.jpg,paints/images/71.jpg,153,s,001,2020-11-19_22h31.16.699,test3,2020.2.5,Win32,60
,,,,m,0.94483,0,153,153,153,1,paints/images/202.jpg,paints/images/219.jpg,154,s,001,2020-11-19_22h31.16.699,test3,2020.2.5,Win32,60
,,,,m,0.872315,0,154,154,154,1,paints/images/34.jpg,paints/images/271.jpg,155,s,001,2020-11-19_22h31.16.699,test3,2020.2.5,Win32,60
,,,,m,2.537715,0,155,155,155,1,paints/images/296.jpg,paints/images/90.jpg,156,s,001,2020-11-19_22h31.16.699,test3,2020.2.5,Win32,60
,,,,m,1.031065,0,156,156,156,1,paints/images/25.jpg,paints/images/338.jpg,157,s,001,2020-11-19_22h31.16.699,test3,2020.2.5,Win32,60
,,,,m,1.335775,0,157,157,157,1,paints/images/396.jpg,paints/images/78.jpg,158,s,001,2020-11-19_22h31.16.699,test3,2020.2.5,Win32,60
,,,,m,1.03764,0,158,158,158,1,paints/images/72.jpg,paints/images/111.jpg,159,s,001,2020-11-19_22h31.16.699,test3,2020.2.5,Win32,60
,,,,z,3.58053,0,159,159,159,1,paints/images/164.jpg,paints/images/16.jpg,160,s,001,2020-11-19_22h31.16.699,test3,2020.2.5,Win32,60
,,,,z,7.01886,0,160,160,160,1,paints/images/387.jpg,paints/images/244.jpg,161,s,001,2020-11-19_22h31.16.699,test3,2020.2.5,Win32,60
,,,,m,4.68448,0,161,161,161,1,paints/images/64.jpg,paints/images/260.jpg,162,s,001,2020-11-19_22h31.16.699,test3,2020.2.5,Win32,60
,,,,m,1.163185,0,162,162,162,1,paints/images/160.jpg,paints/images/63.jpg,163,s,001,2020-11-19_22h31.16.699,test3,2020.2.5,Win32,60
,,,,m,1.39065,0,163,163,163,1,paints/images/3.jpg,paints/images/282.jpg,164,s,001,2020-11-19_22h31.16.699,test3,2020.2.5,Win32,60
,,,,z,2.542615,0,164,164,164,1,paints/images/307.jpg,paints/images/152.jpg,165,s,001,2020-11-19_22h31.16.699,test3,2020.2.5,Win32,60
,,,,m,1.86716,0,165,165,165,1,paints/images/311.jpg,paints/images/123.jpg,166,s,001,2020-11-19_22h31.16.699,test3,2020.2.5,Win32,60
,,,,z,1.554125,0,166,166,166,1,paints/images/143.jpg,paints/images/286.jpg,167,s,001,2020-11-19_22h31.16.699,test3,2020.2.5,Win32,60
,,,,z,0.92795,0,167,167,167,1,paints/images/97.jpg,paints/images/216.jpg,168,s,001,2020-11-19_22h31.16.699,test3,2020.2.5,Win32,60
,,,,z,3.10555,0,168,168,168,1,paints/images/395.jpg,paints/images/170.jpg,169,s,001,2020-11-19_22h31.16.699,test3,2020.2.5,Win32,60
,,,,z,1.2052,0,169,169,169,1,paints/images/151.jpg,paints/images/26.jpg,170,s,001,2020-11-19_22h31.16.699,test3,2020.2.5,Win32,60
,,,,z,0.999745,0,170,170,170,1,paints/images/51.jpg,paints/images/32.jpg,171,s,001,2020-11-19_22h31.16.699,test3,2020.2.5,Win32,60
,,,,z,1.33529,0,171,171,171,1,paints/images/305.jpg,paints/images/176.jpg,172,s,001,2020-11-19_22h31.16.699,test3,2020.2.5,Win32,60
,,,,m,0.80472,0,172,172,172,1,paints/images/137.jpg,paints/images/48.jpg,173,s,001,2020-11-19_22h31.16.699,test3,2020.2.5,Win32,60
,,,,m,0.990375,0,173,173,173,1,paints/images/65.jpg,paints/images/243.jpg,174,s,001,2020-11-19_22h31.16.699,test3,2020.2.5,Win32,60
,,,,z,2.097675,0,174,174,174,1,paints/images/115.jpg,paints/images/210.jpg,175,s,001,2020-11-19_22h31.16.699,test3,2020.2.5,Win32,60
,,,,m,2.126755,0,175,175,175,1,paints/images/310.jpg,paints/images/58.jpg,176,s,001,2020-11-19_22h31.16.699,test3,2020.2.5,Win32,60
,,,,m,1.40139,0,176,176,176,1,paints/images/1.jpg,paints/images/112.jpg,177,s,001,2020-11-19_22h31.16.699,test3,2020.2.5,Win32,60
,,,,m,1.632115,0,177,177,177,1,paints/images/125.jpg,paints/images/17.jpg,178,s,001,2020-11-19_22h31.16.699,test3,2020.2.5,Win32,60
,,,,z,2.285875,0,178,178,178,1,paints/images/279.jpg,paints/images/166.jpg,179,s,001,2020-11-19_22h31.16.699,test3,2020.2.5,Win32,60
,,,,z,4.569085,0,179,179,179,1,paints/images/316.jpg,paints/images/306.jpg,180,s,001,2020-11-19_22h31.16.699,test3,2020.2.5,Win32,60
,,,,m,0.890545,0,180,180,180,1,paints/images/22.jpg,paints/images/214.jpg,181,s,001,2020-11-19_22h31.16.699,test3,2020.2.5,Win32,60
,,,,z,2.607345,0,181,181,181,1,paints/images/54.jpg,paints/images/235.jpg,182,s,001,2020-11-19_22h31.16.699,test3,2020.2.5,Win32,60
,,,,z,1.323425,0,182,182,182,1,paints/images/225.jpg,paints/images/160.jpg,183,s,001,2020-11-19_22h31.16.699,test3,2020.2.5,Win32,60
,,,,z,2.56931,0,183,183,183,1,paints/images/339.jpg,paints/images/59.jpg,184,s,001,2020-11-19_22h31.16.699,test3,2020.2.5,Win32,60
,,,,z,5.235635,0,184,184,184,1,paints/images/409.jpg,paints/images/180.jpg,185,s,001,2020-11-19_22h31.16.699,test3,2020.2.5,Win32,60
,,,,z,1.859525,0,185,185,185,1,paints/images/145.jpg,paints/images/115.jpg,186,s,001,2020-11-19_22h31.16.699,test3,2020.2.5,Win32,60
,,,,z,0.634445,0,186,186,186,1,paints/images/147.jpg,paints/images/37.jpg,187,s,001,2020-11-19_22h31.16.699,test3,2020.2.5,Win32,60
,,,,z,1.241425,0,187,187,187,1,paints/images/288.jpg,paints/images/64.jpg,188,s,001,2020-11-19_22h31.16.699,test3,2020.2.5,Win32,60
,,,,z,1.15268,0,188,188,188,1,paints/images/235.jpg,paints/images/201.jpg,189,s,001,2020-11-19_22h31.16.699,test3,2020.2.5,Win32,60
,,,,m,1.327145,0,189,189,189,1,paints/images/313.jpg,paints/images/2.jpg,190,s,001,2020-11-19_22h31.16.699,test3,2020.2.5,Win32,60
,,,,z,0.826825,0,190,190,190,1,paints/images/329.jpg,paints/images/38.jpg,191,s,001,2020-11-19_22h31.16.699,test3,2020.2.5,Win32,60
,,,,m,0.949185,0,191,191,191,1,paints/images/9.jpg,paints/images/241.jpg,192,s,001,2020-11-19_22h31.16.699,test3,2020.2.5,Win32,60
,,,,z,0.751225,0,192,192,192,1,paints/images/364.jpg,paints/images/44.jpg,193,s,001,2020-11-19_22h31.16.699,test3,2020.2.5,Win32,60
,,,,z,1.02543,0,193,193,193,1,paints/images/14.jpg,paints/images/109.jpg,194,s,001,2020-11-19_22h31.16.699,test3,2020.2.5,Win32,60
,,,,m,2.23892,0,194,194,194,1,paints/images/0.jpg,paints/images/14.jpg,195,s,001,2020-11-19_22h31.16.699,test3,2020.2.5,Win32,60
,,,,z,0.98115,0,195,195,195,1,paints/images/398.jpg,paints/images/247.jpg,196,s,001,2020-11-19_22h31.16.699,test3,2020.2.5,Win32,60
,,,,m,1.101245,0,196,196,196,1,paints/images/377.jpg,paints/images/237.jpg,197,s,001,2020-11-19_22h31.16.699,test3,2020.2.5,Win32,60
,,,,z,1.377235,0,197,197,197,1,paints/images/246.jpg,paints/images/184.jpg,198,s,001,2020-11-19_22h31.16.699,test3,2020.2.5,Win32,60
,,,,z,0.856635,0,198,198,198,1,paints/images/299.jpg,paints/images/301.jpg,199,s,001,2020-11-19_22h31.16.699,test3,2020.2.5,Win32,60
,,,,z,1.1026,0,199,199,199,1,paints/images/116.jpg,paints/images/148.jpg,200,s,001,2020-11-19_22h31.16.699,test3,2020.2.5,Win32,60
,,,,z,1.046435,0,200,200,200,1,paints/images/267.jpg,paints/images/336.jpg,201,s,001,2020-11-19_22h31.16.699,test3,2020.2.5,Win32,60
,,,,z,0.8065,0,201,201,201,1,paints/images/6.jpg,paints/images/182.jpg,202,s,001,2020-11-19_22h31.16.699,test3,2020.2.5,Win32,60
,,,,m,0.99661,0,202,202,202,1,paints/images/348.jpg,paints/images/105.jpg,203,s,001,2020-11-19_22h31.16.699,test3,2020.2.5,Win32,60
,,,,m,0.9819,0,203,203,203,1,paints/images/404.jpg,paints/images/372.jpg,204,s,001,2020-11-19_22h31.16.699,test3,2020.2.5,Win32,60
,,,,z,1.93528,0,204,204,204,1,paints/images/324.jpg,paints/images/134.jpg,205,s,001,2020-11-19_22h31.16.699,test3,2020.2.5,Win32,60
,,,,z,1.208815,0,205,205,205,1,paints/images/278.jpg,paints/images/269.jpg,206,s,001,2020-11-19_22h31.16.699,test3,2020.2.5,Win32,60
,,,,z,1.537525,0,206,206,206,1,paints/images/237.jpg,paints/images/375.jpg,207,s,001,2020-11-19_22h31.16.699,test3,2020.2.5,Win32,60
,,,,z,1.310345,0,207,207,207,1,paints/images/109.jpg,paints/images/224.jpg,208,s,001,2020-11-19_22h31.16.699,test3,2020.2.5,Win32,60
,,,,m,1.51994,0,208,208,208,1,paints/images/318.jpg,paints/images/127.jpg,209,s,001,2020-11-19_22h31.16.699,test3,2020.2.5,Win32,60
,,,,z,1.773765,0,209,209,209,1,paints/images/120.jpg,paints/images/254.jpg,210,s,001,2020-11-19_22h31.16.699,test3,2020.2.5,Win32,60
,,,,m,1.66993,0,210,210,210,1,paints/images/86.jpg,paints/images/67.jpg,211,s,001,2020-11-19_22h31.16.699,test3,2020.2.5,Win32,60
,,,,m,2.421795,0,211,211,211,1,paints/images/302.jpg,paints/images/245.jpg,212,s,001,2020-11-19_22h31.16.699,test3,2020.2.5,Win32,60
,,,,z,2.129055,0,212,212,212,1,paints/images/94.jpg,paints/images/242.jpg,213,s,001,2020-11-19_22h31.16.699,test3,2020.2.5,Win32,60
,,,,z,0.77757,0,213,213,213,1,paints/images/295.jpg,paints/images/72.jpg,214,s,001,2020-11-19_22h31.16.699,test3,2020.2.5,Win32,60
,,,,z,1.201615,0,214,214,214,1,paints/images/227.jpg,paints/images/175.jpg,215,s,001,2020-11-19_22h31.16.699,test3,2020.2.5,Win32,60
,,,,m,2.152655,0,215,215,215,1,paints/images/26.jpg,paints/images/203.jpg,216,s,001,2020-11-19_22h31.16.699,test3,2020.2.5,Win32,60
,,,,m,1.03214,0,216,216,216,1,paints/images/45.jpg,paints/images/272.jpg,217,s,001,2020-11-19_22h31.16.699,test3,2020.2.5,Win32,60
,,,,m,1.02618,0,217,217,217,1,paints/images/410.jpg,paints/images/185.jpg,218,s,001,2020-11-19_22h31.16.699,test3,2020.2.5,Win32,60
,,,,m,1.20446,0,218,218,218,1,paints/images/380.jpg,paints/images/0.jpg,219,s,001,2020-11-19_22h31.16.699,test3,2020.2.5,Win32,60
,,,,z,2.402525,0,219,219,219,1,paints/images/370.jpg,paints/images/106.jpg,220,s,001,2020-11-19_22h31.16.699,test3,2020.2.5,Win32,60
,,,,z,1.79981,0,220,220,220,1,paints/images/102.jpg,paints/images/309.jpg,221,s,001,2020-11-19_22h31.16.699,test3,2020.2.5,Win32,60
,,,,m,1.226355,0,221,221,221,1,paints/images/167.jpg,paints/images/299.jpg,222,s,001,2020-11-19_22h31.16.699,test3,2020.2.5,Win32,60
,,,,z,0.85527,0,222,222,222,1,paints/images/290.jpg,paints/images/192.jpg,223,s,001,2020-11-19_22h31.16.699,test3,2020.2.5,Win32,60
,,,,m,1.23002,0,223,223,223,1,paints/images/82.jpg,paints/images/353.jpg,224,s,001,2020-11-19_22h31.16.699,test3,2020.2.5,Win32,60
,,,,z,1.673355,0,224,224,224,1,paints/images/75.jpg,paints/images/404.jpg,225,s,001,2020-11-19_22h31.16.699,test3,2020.2.5,Win32,60
,,,,m,3.002855,0,225,225,225,1,paints/images/117.jpg,paints/images/100.jpg,226,s,001,2020-11-19_22h31.16.699,test3,2020.2.5,Win32,60
,,,,m,0.895565,0,226,226,226,1,paints/images/200.jpg,paints/images/378.jpg,227,s,001,2020-11-19_22h31.16.699,test3,2020.2.5,Win32,60
,,,,m,2.59284,0,227,227,227,1,paints/images/371.jpg,paints/images/57.jpg,228,s,001,2020-11-19_22h31.16.699,test3,2020.2.5,Win32,60
,,,,z,1.562155,0,228,228,228,1,paints/images/87.jpg,paints/images/302.jpg,229,s,001,2020-11-19_22h31.16.699,test3,2020.2.5,Win32,60
,,,,m,1.10557,0,229,229,229,1,paints/images/208.jpg,paints/images/39.jpg,230,s,001,2020-11-19_22h31.16.699,test3,2020.2.5,Win32,60
,,,,m,0.8651,0,230,230,230,1,paints/images/198.jpg,paints/images/200.jpg,231,s,001,2020-11-19_22h31.16.699,test3,2020.2.5,Win32,60
,,,,m,2.39638,0,231,231,231,1,paints/images/43.jpg,paints/images/42.jpg,232,s,001,2020-11-19_22h31.16.699,test3,2020.2.5,Win32,60
,,,,m,1.398385,0,232,232,232,1,paints/images/286.jpg,paints/images/376.jpg,233,s,001,2020-11-19_22h31.16.699,test3,2020.2.5,Win32,60
,,,,z,1.548395,0,233,233,233,1,paints/images/275.jpg,paints/images/76.jpg,234,s,001,2020-11-19_22h31.16.699,test3,2020.2.5,Win32,60
,,,,m,0.855575,0,234,234,234,1,paints/images/138.jpg,paints/images/129.jpg,235,s,001,2020-11-19_22h31.16.699,test3,2020.2.5,Win32,60
,,,,z,1.00868,0,235,235,235,1,paints/images/386.jpg,paints/images/366.jpg,236,s,001,2020-11-19_22h31.16.699,test3,2020.2.5,Win32,60
,,,,m,0.94719,0,236,236,236,1,paints/images/232.jpg,paints/images/215.jpg,237,s,001,2020-11-19_22h31.16.699,test3,2020.2.5,Win32,60
,,,,z,1.330695,0,237,237,237,1,paints/images/122.jpg,paints/images/199.jpg,238,s,001,2020-11-19_22h31.16.699,test3,2020.2.5,Win32,60
,,,,z,3.6428,0,238,238,238,1,paints/images/388.jpg,paints/images/169.jpg,239,s,001,2020-11-19_22h31.16.699,test3,2020.2.5,Win32,60
,,,,m,1.76474,0,239,239,239,1,paints/images/399.jpg,paints/images/229.jpg,240,s,001,2020-11-19_22h31.16.699,test3,2020.2.5,Win32,60
,,,,z,1.431805,0,240,240,240,1,paints/images/300.jpg,paints/images/1.jpg,241,s,001,2020-11-19_22h31.16.699,test3,2020.2.5,Win32,60
,,,,z,1.67384,0,241,241,241,1,paints/images/195.jpg,paints/images/399.jpg,242,s,001,2020-11-19_22h31.16.699,test3,2020.2.5,Win32,60
,,,,m,1.032475,0,242,242,242,1,paints/images/281.jpg,paints/images/277.jpg,243,s,001,2020-11-19_22h31.16.699,test3,2020.2.5,Win32,60
,,,,z,2.205205,0,243,243,243,1,paints/images/103.jpg,paints/images/288.jpg,244,s,001,2020-11-19_22h31.16.699,test3,2020.2.5,Win32,60
,,,,m,0.932895,0,244,244,244,1,paints/images/297.jpg,paints/images/222.jpg,245,s,001,2020-11-19_22h31.16.699,test3,2020.2.5,Win32,60
,,,,m,1.43305,0,245,245,245,1,paints/images/394.jpg,paints/images/258.jpg,246,s,001,2020-11-19_22h31.16.699,test3,2020.2.5,Win32,60
,,,,m,1.28134,0,246,246,246,1,paints/images/73.jpg,paints/images/49.jpg,247,s,001,2020-11-19_22h31.16.699,test3,2020.2.5,Win32,60
,,,,z,2.027765,0,247,247,247,1,paints/images/112.jpg,paints/images/80.jpg,248,s,001,2020-11-19_22h31.16.699,test3,2020.2.5,Win32,60
,,,,z,1.100135,0,248,248,248,1,paints/images/245.jpg,paints/images/358.jpg,249,s,001,2020-11-19_22h31.16.699,test3,2020.2.5,Win32,60
,,,,z,0.71498,0,249,249,249,1,paints/images/347.jpg,paints/images/143.jpg,250,s,001,2020-11-19_22h31.16.699,test3,2020.2.5,Win32,60
,,,,z,1.14334,0,250,250,250,1,paints/images/352.jpg,paints/images/145.jpg,251,s,001,2020-11-19_22h31.16.699,test3,2020.2.5,Win32,60
,,,,m,0.931535,0,251,251,251,1,paints/images/69.jpg,paints/images/162.jpg,252,s,001,2020-11-19_22h31.16.699,test3,2020.2.5,Win32,60
,,,,z,0.640505,0,252,252,252,1,paints/images/381.jpg,paints/images/202.jpg,253,s,001,2020-11-19_22h31.16.699,test3,2020.2.5,Win32,60
,,,,z,0.87441,0,253,253,253,1,paints/images/361.jpg,paints/images/340.jpg,254,s,001,2020-11-19_22h31.16.699,test3,2020.2.5,Win32,60
,,,,z,1.595575,0,254,254,254,1,paints/images/217.jpg,paints/images/9.jpg,255,s,001,2020-11-19_22h31.16.699,test3,2020.2.5,Win32,60
,,,,z,1.12441,0,255,255,255,1,paints/images/8.jpg,paints/images/409.jpg,256,s,001,2020-11-19_22h31.16.699,test3,2020.2.5,Win32,60
,,,,z,1.821975,0,256,256,256,1,paints/images/59.jpg,paints/images/33.jpg,257,s,001,2020-11-19_22h31.16.699,test3,2020.2.5,Win32,60
,,,,m,1.312325,0,257,257,257,1,paints/images/21.jpg,paints/images/311.jpg,258,s,001,2020-11-19_22h31.16.699,test3,2020.2.5,Win32,60
,,,,z,1.72468,0,258,258,258,1,paints/images/408.jpg,paints/images/31.jpg,259,s,001,2020-11-19_22h31.16.699,test3,2020.2.5,Win32,60
,,,,z,2.52229,0,259,259,259,1,paints/images/98.jpg,paints/images/3.jpg,260,s,001,2020-11-19_22h31.16.699,test3,2020.2.5,Win32,60
,,,,z,1.10494,0,260,260,260,1,paints/images/336.jpg,paints/images/138.jpg,261,s,001,2020-11-19_22h31.16.699,test3,2020.2.5,Win32,60
,,,,m,1.29448,0,261,261,261,1,paints/images/186.jpg,paints/images/395.jpg,262,s,001,2020-11-19_22h31.16.699,test3,2020.2.5,Win32,60
,,,,z,0.905795,0,262,262,262,1,paints/images/76.jpg,paints/images/405.jpg,263,s,001,2020-11-19_22h31.16.699,test3,2020.2.5,Win32,60
,,,,m,1.52467,0,263,263,263,1,paints/images/171.jpg,paints/images/381.jpg,264,s,001,2020-11-19_22h31.16.699,test3,2020.2.5,Win32,60
,,,,z,1.01364,0,264,264,264,1,paints/images/220.jpg,paints/images/70.jpg,265,s,001,2020-11-19_22h31.16.699,test3,2020.2.5,Win32,60
,,,,m,0.952865,0,265,265,265,1,paints/images/337.jpg,paints/images/339.jpg,266,s,001,2020-11-19_22h31.16.699,test3,2020.2.5,Win32,60
,,,,z,1.060585,0,266,266,266,1,paints/images/258.jpg,paints/images/85.jpg,267,s,001,2020-11-19_22h31.16.699,test3,2020.2.5,Win32,60
,,,,z,1.57799,0,267,267,267,1,paints/images/273.jpg,paints/images/113.jpg,268,s,001,2020-11-19_22h31.16.699,test3,2020.2.5,Win32,60
,,,,m,1.1861,0,268,268,268,1,paints/images/353.jpg,paints/images/368.jpg,269,s,001,2020-11-19_22h31.16.699,test3,2020.2.5,Win32,60
,,,,z,0.92622,0,269,269,269,1,paints/images/187.jpg,paints/images/86.jpg,270,s,001,2020-11-19_22h31.16.699,test3,2020.2.5,Win32,60
,,,,z,0.969225,0,270,270,270,1,paints/images/176.jpg,paints/images/193.jpg,271,s,001,2020-11-19_22h31.16.699,test3,2020.2.5,Win32,60
,,,,z,1.03555,0,271,271,271,1,paints/images/175.jpg,paints/images/194.jpg,272,s,001,2020-11-19_22h31.16.699,test3,2020.2.5,Win32,60
,,,,m,0.98512,0,272,272,272,1,paints/images/407.jpg,paints/images/81.jpg,273,s,001,2020-11-19_22h31.16.699,test3,2020.2.5,Win32,60
,,,,m,1.40489,0,273,273,273,1,paints/images/276.jpg,paints/images/77.jpg,274,s,001,2020-11-19_22h31.16.699,test3,2020.2.5,Win32,60
,,,,z,0.954005,0,274,274,274,1,paints/images/291.jpg,paints/images/314.jpg,275,s,001,2020-11-19_22h31.16.699,test3,2020.2.5,Win32,60
,,,,m,0.970145,0,275,275,275,1,paints/images/127.jpg,paints/images/36.jpg,276,s,001,2020-11-19_22h31.16.699,test3,2020.2.5,Win32,60
,,,,m,1.514035,0,276,276,276,1,paints/images/372.jpg,paints/images/161.jpg,277,s,001,2020-11-19_22h31.16.699,test3,2020.2.5,Win32,60
,,,,z,0.78613,0,277,277,277,1,paints/images/283.jpg,paints/images/350.jpg,278,s,001,2020-11-19_22h31.16.699,test3,2020.2.5,Win32,60
,,,,z,1.017595,0,278,278,278,1,paints/images/106.jpg,paints/images/68.jpg,279,s,001,2020-11-19_22h31.16.699,test3,2020.2.5,Win32,60
,,,,z,0.815755,0,279,279,279,1,paints/images/224.jpg,paints/images/266.jpg,280,s,001,2020-11-19_22h31.16.699,test3,2020.2.5,Win32,60
,,,,m,0.994715,0,280,280,280,1,paints/images/375.jpg,paints/images/264.jpg,281,s,001,2020-11-19_22h31.16.699,test3,2020.2.5,Win32,60
,,,,m,0.84886,0,281,281,281,1,paints/images/47.jpg,paints/images/87.jpg,282,s,001,2020-11-19_22h31.16.699,test3,2020.2.5,Win32,60
,,,,m,2.28703,0,282,282,282,1,paints/images/38.jpg,paints/images/298.jpg,283,s,001,2020-11-19_22h31.16.699,test3,2020.2.5,Win32,60
,,,,z,0.891925,0,283,283,283,1,paints/images/161.jpg,paints/images/28.jpg,284,s,001,2020-11-19_22h31.16.699,test3,2020.2.5,Win32,60
,,,,z,2.37967,0,284,284,284,1,paints/images/298.jpg,paints/images/345.jpg,285,s,001,2020-11-19_22h31.16.699,test3,2020.2.5,Win32,60
,,,,z,1.1725,0,285,285,285,1,paints/images/163.jpg,paints/images/205.jpg,286,s,001,2020-11-19_22h31.16.699,test3,2020.2.5,Win32,60
,,,,z,1.489425,0,286,286,286,1,paints/images/121.jpg,paints/images/252.jpg,287,s,001,2020-11-19_22h31.16.699,test3,2020.2.5,Win32,60
,,,,m,4.072755,0,287,287,287,1,paints/images/247.jpg,paints/images/95.jpg,288,s,001,2020-11-19_22h31.16.699,test3,2020.2.5,Win32,60
,,,,z,0.75784,0,288,288,288,1,paints/images/321.jpg,paints/images/150.jpg,289,s,001,2020-11-19_22h31.16.699,test3,2020.2.5,Win32,60
,,,,z,1.16,0,289,289,289,1,paints/images/46.jpg,paints/images/226.jpg,290,s,001,2020-11-19_22h31.16.699,test3,2020.2.5,Win32,60
,,,,z,1.69266,0,290,290,290,1,paints/images/154.jpg,paints/images/263.jpg,291,s,001,2020-11-19_22h31.16.699,test3,2020.2.5,Win32,60
,,,,z,2.200515,0,291,291,291,1,paints/images/191.jpg,paints/images/158.jpg,292,s,001,2020-11-19_22h31.16.699,test3,2020.2.5,Win32,60
,,,,z,1.278765,0,292,292,292,1,paints/images/49.jpg,paints/images/227.jpg,293,s,001,2020-11-19_22h31.16.699,test3,2020.2.5,Win32,60
,,,,m,2.97929,0,293,293,293,1,paints/images/124.jpg,paints/images/89.jpg,294,s,001,2020-11-19_22h31.16.699,test3,2020.2.5,Win32,60
,,,,z,1.164015,0,294,294,294,1,paints/images/390.jpg,paints/images/43.jpg,295,s,001,2020-11-19_22h31.16.699,test3,2020.2.5,Win32,60
,,,,z,0.950985,0,295,295,295,1,paints/images/42.jpg,paints/images/268.jpg,296,s,001,2020-11-19_22h31.16.699,test3,2020.2.5,Win32,60
,,,,m,1.161485,0,296,296,296,1,paints/images/113.jpg,paints/images/386.jpg,297,s,001,2020-11-19_22h31.16.699,test3,2020.2.5,Win32,60
,,,,m,1.77634,0,297,297,297,1,paints/images/287.jpg,paints/images/307.jpg,298,s,001,2020-11-19_22h31.16.699,test3,2020.2.5,Win32,60
,,,,m,1.00452,0,298,298,298,1,paints/images/134.jpg,paints/images/300.jpg,299,s,001,2020-11-19_22h31.16.699,test3,2020.2.5,Win32,60
,,,,m,1.657405,0,299,299,299,1,paints/images/60.jpg,paints/images/206.jpg,300,s,001,2020-11-19_22h31.16.699,test3,2020.2.5,Win32,60
,,,,m,1.37366,0,300,300,300,1,paints/images/384.jpg,paints/images/335.jpg,301,s,001,2020-11-19_22h31.16.699,test3,2020.2.5,Win32,60
,,,,z,0.794545,0,301,301,301,1,paints/images/326.jpg,paints/images/139.jpg,302,s,001,2020-11-19_22h31.16.699,test3,2020.2.5,Win32,60
,,,,m,2.521015,0,302,302,302,1,paints/images/166.jpg,paints/images/374.jpg,303,s,001,2020-11-19_22h31.16.699,test3,2020.2.5,Win32,60
,,,,z,0.87254,0,303,303,303,1,paints/images/360.jpg,paints/images/10.jpg,304,s,001,2020-11-19_22h31.16.699,test3,2020.2.5,Win32,60
,,,,m,1.27997,0,304,304,304,1,paints/images/158.jpg,paints/images/149.jpg,305,s,001,2020-11-19_22h31.16.699,test3,2020.2.5,Win32,60
,,,,z,1.182135,0,305,305,305,1,paints/images/159.jpg,paints/images/362.jpg,306,s,001,2020-11-19_22h31.16.699,test3,2020.2.5,Win32,60
,,,,z,1.20604,0,306,306,306,1,paints/images/214.jpg,paints/images/116.jpg,307,s,001,2020-11-19_22h31.16.699,test3,2020.2.5,Win32,60
,,,,m,4.18079,0,307,307,307,1,paints/images/256.jpg,paints/images/323.jpg,308,s,001,2020-11-19_22h31.16.699,test3,2020.2.5,Win32,60
,,,,m,1.863885,0,308,308,308,1,paints/images/36.jpg,paints/images/157.jpg,309,s,001,2020-11-19_22h31.16.699,test3,2020.2.5,Win32,60
,,,,m,1.25177,0,309,309,309,1,paints/images/101.jpg,paints/images/126.jpg,310,s,001,2020-11-19_22h31.16.699,test3,2020.2.5,Win32,60
,,,,z,0.884465,0,310,310,310,1,paints/images/265.jpg,paints/images/35.jpg,311,s,001,2020-11-19_22h31.16.699,test3,2020.2.5,Win32,60
,,,,m,4.10427,0,311,311,311,1,paints/images/392.jpg,paints/images/233.jpg,312,s,001,2020-11-19_22h31.16.699,test3,2020.2.5,Win32,60
,,,,z,1.31403,0,312,312,312,1,paints/images/251.jpg,paints/images/12.jpg,313,s,001,2020-11-19_22h31.16.699,test3,2020.2.5,Win32,60
,,,,m,0.713785,0,313,313,313,1,paints/images/12.jpg,paints/images/144.jpg,314,s,001,2020-11-19_22h31.16.699,test3,2020.2.5,Win32,60
,,,,z,0.76926,0,314,314,314,1,paints/images/133.jpg,paints/images/331.jpg,315,s,001,2020-11-19_22h31.16.699,test3,2020.2.5,Win32,60
,,,,m,0.875945,0,315,315,315,1,paints/images/383.jpg,paints/images/99.jpg,316,s,001,2020-11-19_22h31.16.699,test3,2020.2.5,Win32,60
,,,,z,3.33136,0,316,316,316,1,paints/images/211.jpg,paints/images/303.jpg,317,s,001,2020-11-19_22h31.16.699,test3,2020.2.5,Win32,60
,,,,m,0.73811,0,317,317,317,1,paints/images/201.jpg,paints/images/238.jpg,318,s,001,2020-11-19_22h31.16.699,test3,2020.2.5,Win32,60
,,,,m,0.912745,0,318,318,318,1,paints/images/205.jpg,paints/images/102.jpg,319,s,001,2020-11-19_22h31.16.699,test3,2020.2.5,Win32,60
,,,,z,1.36173,0,319,319,319,1,paints/images/270.jpg,paints/images/322.jpg,320,s,001,2020-11-19_22h31.16.699,test3,2020.2.5,Win32,60
,,,,m,1.147225,0,320,320,320,1,paints/images/341.jpg,paints/images/248.jpg,321,s,001,2020-11-19_22h31.16.699,test3,2020.2.5,Win32,60
,,,,m,0.80409,0,321,321,321,1,paints/images/141.jpg,paints/images/94.jpg,322,s,001,2020-11-19_22h31.16.699,test3,2020.2.5,Win32,60
,,,,m,0.966145,0,322,322,322,1,paints/images/83.jpg,paints/images/327.jpg,323,s,001,2020-11-19_22h31.16.699,test3,2020.2.5,Win32,60
,,,,z,0.74022,0,323,323,323,1,paints/images/327.jpg,paints/images/110.jpg,324,s,001,2020-11-19_22h31.16.699,test3,2020.2.5,Win32,60
,,,,m,1.009045,0,324,324,324,1,paints/images/157.jpg,paints/images/79.jpg,325,s,001,2020-11-19_22h31.16.699,test3,2020.2.5,Win32,60
,,,,m,1.01861,0,325,325,325,1,paints/images/193.jpg,paints/images/74.jpg,326,s,001,2020-11-19_22h31.16.699,test3,2020.2.5,Win32,60
,,,,m,0.778555,0,326,326,326,1,paints/images/140.jpg,paints/images/292.jpg,327,s,001,2020-11-19_22h31.16.699,test3,2020.2.5,Win32,60
,,,,z,0.828145,0,327,327,327,1,paints/images/107.jpg,paints/images/92.jpg,328,s,001,2020-11-19_22h31.16.699,test3,2020.2.5,Win32,60
,,,,m,0.83191,0,328,328,328,1,paints/images/7.jpg,paints/images/56.jpg,329,s,001,2020-11-19_22h31.16.699,test3,2020.2.5,Win32,60
,,,,z,2.160565,0,329,329,329,1,paints/images/177.jpg,paints/images/141.jpg,330,s,001,2020-11-19_22h31.16.699,test3,2020.2.5,Win32,60
,,,,m,0.742315,0,330,330,330,1,paints/images/244.jpg,paints/images/250.jpg,331,s,001,2020-11-19_22h31.16.699,test3,2020.2.5,Win32,60
,,,,z,1.15631,0,331,331,331,1,paints/images/253.jpg,paints/images/8.jpg,332,s,001,2020-11-19_22h31.16.699,test3,2020.2.5,Win32,60
,,,,m,0.71961,0,332,332,332,1,paints/images/136.jpg,paints/images/108.jpg,333,s,001,2020-11-19_22h31.16.699,test3,2020.2.5,Win32,60
,,,,m,1.10126,0,333,333,333,1,paints/images/165.jpg,paints/images/147.jpg,334,s,001,2020-11-19_22h31.16.699,test3,2020.2.5,Win32,60
,,,,z,1.148695,0,334,334,334,1,paints/images/39.jpg,paints/images/387.jpg,335,s,001,2020-11-19_22h31.16.699,test3,2020.2.5,Win32,60
,,,,z,0.78122,0,335,335,335,1,paints/images/271.jpg,paints/images/125.jpg,336,s,001,2020-11-19_22h31.16.699,test3,2020.2.5,Win32,60
,,,,m,0.907105,0,336,336,336,1,paints/images/90.jpg,paints/images/130.jpg,337,s,001,2020-11-19_22h31.16.699,test3,2020.2.5,Win32,60
,,,,z,1.41626,0,337,337,337,1,paints/images/362.jpg,paints/images/60.jpg,338,s,001,2020-11-19_22h31.16.699,test3,2020.2.5,Win32,60
,,,,z,0.889405,0,338,338,338,1,paints/images/218.jpg,paints/images/153.jpg,339,s,001,2020-11-19_22h31.16.699,test3,2020.2.5,Win32,60
,,,,z,1.254955,0,339,339,339,1,paints/images/18.jpg,paints/images/324.jpg,340,s,001,2020-11-19_22h31.16.699,test3,2020.2.5,Win32,60
,,,,m,0.823625,0,340,340,340,1,paints/images/29.jpg,paints/images/120.jpg,341,s,001,2020-11-19_22h31.16.699,test3,2020.2.5,Win32,60
,,,,z,0.656905,0,341,341,341,1,paints/images/155.jpg,paints/images/142.jpg,342,s,001,2020-11-19_22h31.16.699,test3,2020.2.5,Win32,60
,,,,m,1.653375,0,342,342,342,1,paints/images/148.jpg,paints/images/396.jpg,343,s,001,2020-11-19_22h31.16.699,test3,2020.2.5,Win32,60
,,,,m,1.349145,0,343,343,343,1,paints/images/373.jpg,paints/images/218.jpg,344,s,001,2020-11-19_22h31.16.699,test3,2020.2.5,Win32,60
,,,,m,1.11147,0,344,344,344,1,paints/images/231.jpg,paints/images/73.jpg,345,s,001,2020-11-19_22h31.16.699,test3,2020.2.5,Win32,60
,,,,z,0.680995,0,345,345,345,1,paints/images/240.jpg,paints/images/356.jpg,346,s,001,2020-11-19_22h31.16.699,test3,2020.2.5,Win32,60
,,,,m,0.703465,0,346,346,346,1,paints/images/332.jpg,paints/images/347.jpg,347,s,001,2020-11-19_22h31.16.699,test3,2020.2.5,Win32,60
,,,,z,2.308845,0,347,347,347,1,paints/images/254.jpg,paints/images/310.jpg,348,s,001,2020-11-19_22h31.16.699,test3,2020.2.5,Win32,60
,,,,m,1.38941,0,348,348,348,1,paints/images/405.jpg,paints/images/385.jpg,349,s,001,2020-11-19_22h31.16.699,test3,2020.2.5,Win32,60
,,,,z,1.320345,0,349,349,349,1,paints/images/345.jpg,paints/images/274.jpg,350,s,001,2020-11-19_22h31.16.699,test3,2020.2.5,Win32,60
,,,,z,1.170595,0,350,350,350,1,paints/images/363.jpg,paints/images/18.jpg,351,s,001,2020-11-19_22h31.16.699,test3,2020.2.5,Win32,60
,,,,m,0.69705,0,351,351,351,1,paints/images/37.jpg,paints/images/53.jpg,352,s,001,2020-11-19_22h31.16.699,test3,2020.2.5,Win32,60
,,,,z,1.87489,0,352,352,352,1,paints/images/315.jpg,paints/images/319.jpg,353,s,001,2020-11-19_22h31.16.699,test3,2020.2.5,Win32,60
,,,,m,1.59495,0,353,353,353,1,paints/images/74.jpg,paints/images/403.jpg,354,s,001,2020-11-19_22h31.16.699,test3,2020.2.5,Win32,60
,,,,m,1.28487,0,354,354,354,1,paints/images/156.jpg,paints/images/246.jpg,355,s,001,2020-11-19_22h31.16.699,test3,2020.2.5,Win32,60
,,,,z,1.193115,0,355,355,355,1,paints/images/285.jpg,paints/images/270.jpg,356,s,001,2020-11-19_22h31.16.699,test3,2020.2.5,Win32,60
,,,,z,1.46233,0,356,356,356,1,paints/images/17.jpg,paints/images/398.jpg,357,s,001,2020-11-19_22h31.16.699,test3,2020.2.5,Win32,60
,,,,z,2.24184,0,357,357,357,1,paints/images/335.jpg,paints/images/27.jpg,358,s,001,2020-11-19_22h31.16.699,test3,2020.2.5,Win32,60
,,,,m,1.49839,0,358,358,358,1,paints/images/350.jpg,paints/images/156.jpg,359,s,001,2020-11-19_22h31.16.699,test3,2020.2.5,Win32,60
,,,,m,0.79458,0,359,359,359,1,paints/images/31.jpg,paints/images/231.jpg,360,s,001,2020-11-19_22h31.16.699,test3,2020.2.5,Win32,60
,,,,z,1.21497,0,360,360,360,1,paints/images/114.jpg,paints/images/333.jpg,361,s,001,2020-11-19_22h31.16.699,test3,2020.2.5,Win32,60
,,,,m,1.609705,0,361,361,361,1,paints/images/79.jpg,paints/images/408.jpg,362,s,001,2020-11-19_22h31.16.699,test3,2020.2.5,Win32,60
,,,,m,0.965885,0,362,362,362,1,paints/images/338.jpg,paints/images/279.jpg,363,s,001,2020-11-19_22h31.16.699,test3,2020.2.5,Win32,60
,,,,m,3.21693,0,363,363,363,1,paints/images/354.jpg,paints/images/304.jpg,364,s,001,2020-11-19_22h31.16.699,test3,2020.2.5,Win32,60
,,,,m,1.140745,0,364,364,364,1,paints/images/128.jpg,paints/images/276.jpg,365,s,001,2020-11-19_22h31.16.699,test3,2020.2.5,Win32,60
,,,,z,1.733795,0,365,365,365,1,paints/images/35.jpg,paints/images/188.jpg,366,s,001,2020-11-19_22h31.16.699,test3,2020.2.5,Win32,60
,,,,z,1.113215,0,366,366,366,1,paints/images/16.jpg,paints/images/29.jpg,367,s,001,2020-11-19_22h31.16.699,test3,2020.2.5,Win32,60
,,,,z,1.76206,0,367,367,367,1,paints/images/119.jpg,paints/images/251.jpg,368,s,001,2020-11-19_22h31.16.699,test3,2020.2.5,Win32,60
,,,,m,1.8154,0,368,368,368,1,paints/images/207.jpg,paints/images/65.jpg,369,s,001,2020-11-19_22h31.16.699,test3,2020.2.5,Win32,60
,,,,z,1.212315,0,369,369,369,1,paints/images/173.jpg,paints/images/373.jpg,370,s,001,2020-11-19_22h31.16.699,test3,2020.2.5,Win32,60
,,,,z,0.88444,0,370,370,370,1,paints/images/135.jpg,paints/images/196.jpg,371,s,001,2020-11-19_22h31.16.699,test3,2020.2.5,Win32,60
,,,,m,1.785465,0,371,371,371,1,paints/images/55.jpg,paints/images/316.jpg,372,s,001,2020-11-19_22h31.16.699,test3,2020.2.5,Win32,60
,,,,z,0.798875,0,372,372,372,1,paints/images/343.jpg,paints/images/383.jpg,373,s,001,2020-11-19_22h31.16.699,test3,2020.2.5,Win32,60
,,,,m,1.03564,0,373,373,373,1,paints/images/203.jpg,paints/images/186.jpg,374,s,001,2020-11-19_22h31.16.699,test3,2020.2.5,Win32,60
,,,,z,0.850565,0,374,374,374,1,paints/images/123.jpg,paints/images/128.jpg,375,s,001,2020-11-19_22h31.16.699,test3,2020.2.5,Win32,60
,,,,z,2.16616,0,375,375,375,1,paints/images/391.jpg,paints/images/208.jpg,376,s,001,2020-11-19_22h31.16.699,test3,2020.2.5,Win32,60
,,,,m,1.15585,0,376,376,376,1,paints/images/105.jpg,paints/images/313.jpg,377,s,001,2020-11-19_22h31.16.699,test3,2020.2.5,Win32,60
,,,,z,1.55175,0,377,377,377,1,paints/images/184.jpg,paints/images/69.jpg,378,s,001,2020-11-19_22h31.16.699,test3,2020.2.5,Win32,60
,,,,z,1.163425,0,378,378,378,1,paints/images/63.jpg,paints/images/191.jpg,379,s,001,2020-11-19_22h31.16.699,test3,2020.2.5,Win32,60
,,,,m,1.00433,0,379,379,379,1,paints/images/85.jpg,paints/images/390.jpg,380,s,001,2020-11-19_22h31.16.699,test3,2020.2.5,Win32,60
,,,,m,0.816335,0,380,380,380,1,paints/images/179.jpg,paints/images/177.jpg,381,s,001,2020-11-19_22h31.16.699,test3,2020.2.5,Win32,60
,,,,z,0.847815,0,381,381,381,1,paints/images/320.jpg,paints/images/171.jpg,382,s,001,2020-11-19_22h31.16.699,test3,2020.2.5,Win32,60
,,,,z,1.092925,0,382,382,382,1,paints/images/77.jpg,paints/images/406.jpg,383,s,001,2020-11-19_22h31.16.699,test3,2020.2.5,Win32,60
,,,,m,0.967515,0,383,383,383,1,paints/images/66.jpg,paints/images/255.jpg,384,s,001,2020-11-19_22h31.16.699,test3,2020.2.5,Win32,60
,,,,z,1.82719,0,384,384,384,1,paints/images/308.jpg,paints/images/41.jpg,385,s,001,2020-11-19_22h31.16.699,test3,2020.2.5,Win32,60
,,,,m,1.34038,0,385,385,385,1,paints/images/260.jpg,paints/images/297.jpg,386,s,001,2020-11-19_22h31.16.699,test3,2020.2.5,Win32,60
,,,,m,2.100705,0,386,386,386,1,paints/images/126.jpg,paints/images/273.jpg,387,s,001,2020-11-19_22h31.16.699,test3,2020.2.5,Win32,60
,,,,z,1.76352,0,387,387,387,1,paints/images/68.jpg,paints/images/189.jpg,388,s,001,2020-11-19_22h31.16.699,test3,2020.2.5,Win32,60
,,,,z,1.453175,0,388,388,388,1,paints/images/144.jpg,paints/images/280.jpg,389,s,001,2020-11-19_22h31.16.699,test3,2020.2.5,Win32,60
,,,,m,2.52686,0,389,389,389,1,paints/images/24.jpg,paints/images/389.jpg,390,s,001,2020-11-19_22h31.16.699,test3,2020.2.5,Win32,60
,,,,z,0.704365,0,390,390,390,1,paints/images/222.jpg,paints/images/7.jpg,391,s,001,2020-11-19_22h31.16.699,test3,2020.2.5,Win32,60
,,,,m,1.48151,0,391,391,391,1,paints/images/282.jpg,paints/images/278.jpg,392,s,001,2020-11-19_22h31.16.699,test3,2020.2.5,Win32,60
,,,,z,0.760105,0,392,392,392,1,paints/images/190.jpg,paints/images/61.jpg,393,s,001,2020-11-19_22h31.16.699,test3,2020.2.5,Win32,60
,,,,z,1.38597,0,393,393,393,1,paints/images/212.jpg,paints/images/402.jpg,394,s,001,2020-11-19_22h31.16.699,test3,2020.2.5,Win32,60
,,,,m,1.703715,0,394,394,394,1,paints/images/80.jpg,paints/images/410.jpg,395,s,001,2020-11-19_22h31.16.699,test3,2020.2.5,Win32,60
,,,,m,1.271255,0,395,395,395,1,paints/images/252.jpg,paints/images/382.jpg,396,s,001,2020-11-19_22h31.16.699,test3,2020.2.5,Win32,60
,,,,m,3.0237,0,396,396,396,1,paints/images/71.jpg,paints/images/337.jpg,397,s,001,2020-11-19_22h31.16.699,test3,2020.2.5,Win32,60
,,,,m,2.38874,0,397,397,397,1,paints/images/264.jpg,paints/images/118.jpg,398,s,001,2020-11-19_22h31.16.699,test3,2020.2.5,Win32,60
,,,,m,1.854045,0,398,398,398,1,paints/images/180.jpg,paints/images/357.jpg,399,s,001,2020-11-19_22h31.16.699,test3,2020.2.5,Win32,60
,,,,z,1.02574,0,399,399,399,1,paints/images/357.jpg,paints/images/15.jpg,400,s,001,2020-11-19_22h31.16.699,test3,2020.2.5,Win32,60
,,,,z,1.17814,0,400,400,400,1,paints/images/401.jpg,paints/images/220.jpg,401,s,001,2020-11-19_22h31.16.699,test3,2020.2.5,Win32,60
,,,,m,0.69878,0,401,401,401,1,paints/images/95.jpg,paints/images/135.jpg,402,s,001,2020-11-19_22h31.16.699,test3,2020.2.5,Win32,60
,,,,m,0.85407,0,402,402,402,1,paints/images/152.jpg,paints/images/234.jpg,403,s,001,2020-11-19_22h31.16.699,test3,2020.2.5,Win32,60
,,,,z,0.95868,0,403,403,403,1,paints/images/30.jpg,paints/images/88.jpg,404,s,001,2020-11-19_22h31.16.699,test3,2020.2.5,Win32,60
,,,,m,1.452265,0,404,404,404,1,paints/images/194.jpg,paints/images/392.jpg,405,s,001,2020-11-19_22h31.16.699,test3,2020.2.5,Win32,60
,,,,z,0.90782,0,405,405,405,1,paints/images/351.jpg,paints/images/103.jpg,406,s,001,2020-11-19_22h31.16.699,test3,2020.2.5,Win32,60
,,,,z,0.775435,0,406,406,406,1,paints/images/236.jpg,paints/images/369.jpg,407,s,001,2020-11-19_22h31.16.699,test3,2020.2.5,Win32,60
,,,,z,0.825705,0,407,407,407,1,paints/images/219.jpg,paints/images/136.jpg,408,s,001,2020-11-19_22h31.16.699,test3,2020.2.5,Win32,60
,,,,m,0.895255,0,408,408,408,1,paints/images/306.jpg,paints/images/239.jpg,409,s,001,2020-11-19_22h31.16.699,test3,2020.2.5,Win32,60
,,,,m,1.35585,0,409,409,409,1,paints/images/108.jpg,paints/images/259.jpg,410,s,001,2020-11-19_22h31.16.699,test3,2020.2.5,Win32,60
,,,,m,1.07463,0,410,410,410,1,paints/images/210.jpg,paints/images/30.jpg,411,s,001,2020-11-19_22h31.16.699,test3,2020.2.5,Win32,60
