key_resp.keys,key_resp.rt,key_resp_3.keys,key_resp_3.rt,key_resp_2.keys,key_resp_2.rt,trials.thisRepN,trials.thisTrialN,trials.thisN,trials.thisIndex,trials.ran,image_left,image_right,trial_num,participant,session,date,expName,psychopyVersion,OS,frameRate
space,1.569,space,0.625,z,3.086,0,0,0,0,1,paints/images/344.jpg,paints/images/121.jpg,1,xxr,001,2020-11-19_22h13.49.049,test3,2020.2.5,MacIntel,60
,,,,m,0.775,0,1,1,1,1,paints/images/369.jpg,paints/images/367.jpg,2,xxr,001,2020-11-19_22h13.49.049,test3,2020.2.5,MacIntel,60
,,,,m,0.628,0,2,2,2,1,paints/images/385.jpg,paints/images/253.jpg,3,xxr,001,2020-11-19_22h13.49.049,test3,2020.2.5,MacIntel,60
,,,,z,0.698,0,3,3,3,1,paints/images/230.jpg,paints/images/124.jpg,4,xxr,001,2020-11-19_22h13.49.049,test3,2020.2.5,MacIntel,60
,,,,m,0.729,0,4,4,4,1,paints/images/284.jpg,paints/images/172.jpg,5,xxr,001,2020-11-19_22h13.49.049,test3,2020.2.5,MacIntel,60
,,,,m,0.838,0,5,5,5,1,paints/images/325.jpg,paints/images/5.jpg,6,xxr,001,2020-11-19_22h13.49.049,test3,2020.2.5,MacIntel,60
,,,,m,0.475,0,6,6,6,1,paints/images/2.jpg,paints/images/107.jpg,7,xxr,001,2020-11-19_22h13.49.049,test3,2020.2.5,MacIntel,60
,,,,m,0.396,0,7,7,7,1,paints/images/330.jpg,paints/images/93.jpg,8,xxr,001,2020-11-19_22h13.49.049,test3,2020.2.5,MacIntel,60
,,,,m,0.208,0,8,8,8,1,paints/images/197.jpg,paints/images/20.jpg,9,xxr,001,2020-11-19_22h13.49.049,test3,2020.2.5,MacIntel,60
,,,,m,0.149,0,9,9,9,1,paints/images/233.jpg,paints/images/346.jpg,10,xxr,001,2020-11-19_22h13.49.049,test3,2020.2.5,MacIntel,60
,,,,z,0.121,0,10,10,10,1,paints/images/289.jpg,paints/images/317.jpg,11,xxr,001,2020-11-19_22h13.49.049,test3,2020.2.5,MacIntel,60
,,,,m,0.09,0,11,11,11,1,paints/images/189.jpg,paints/images/230.jpg,12,xxr,001,2020-11-19_22h13.49.049,test3,2020.2.5,MacIntel,60
,,,,z,0.103,0,12,12,12,1,paints/images/28.jpg,paints/images/401.jpg,13,xxr,001,2020-11-19_22h13.49.049,test3,2020.2.5,MacIntel,60
,,,,m,0.06,0,13,13,13,1,paints/images/183.jpg,paints/images/198.jpg,14,xxr,001,2020-11-19_22h13.49.049,test3,2020.2.5,MacIntel,60
,,,,z,0.102,0,14,14,14,1,paints/images/223.jpg,paints/images/249.jpg,15,xxr,001,2020-11-19_22h13.49.049,test3,2020.2.5,MacIntel,60
,,,,m,0.068,0,15,15,15,1,paints/images/331.jpg,paints/images/168.jpg,16,xxr,001,2020-11-19_22h13.49.049,test3,2020.2.5,MacIntel,60
,,,,z,0.077,0,16,16,16,1,paints/images/129.jpg,paints/images/21.jpg,17,xxr,001,2020-11-19_22h13.49.049,test3,2020.2.5,MacIntel,60
,,,,m,0.1,0,17,17,17,1,paints/images/250.jpg,paints/images/290.jpg,18,xxr,001,2020-11-19_22h13.49.049,test3,2020.2.5,MacIntel,60
,,,,z,0.041,0,18,18,18,1,paints/images/342.jpg,paints/images/371.jpg,19,xxr,001,2020-11-19_22h13.49.049,test3,2020.2.5,MacIntel,60
,,,,m,0.097,0,19,19,19,1,paints/images/312.jpg,paints/images/349.jpg,20,xxr,001,2020-11-19_22h13.49.049,test3,2020.2.5,MacIntel,60
,,,,z,0.083,0,20,20,20,1,paints/images/44.jpg,paints/images/23.jpg,21,xxr,001,2020-11-19_22h13.49.049,test3,2020.2.5,MacIntel,60
,,,,m,0.089,0,21,21,21,1,paints/images/209.jpg,paints/images/236.jpg,22,xxr,001,2020-11-19_22h13.49.049,test3,2020.2.5,MacIntel,60
,,,,z,0.08,0,22,22,22,1,paints/images/314.jpg,paints/images/326.jpg,23,xxr,001,2020-11-19_22h13.49.049,test3,2020.2.5,MacIntel,60
,,,,m,0.097,0,23,23,23,1,paints/images/374.jpg,paints/images/397.jpg,24,xxr,001,2020-11-19_22h13.49.049,test3,2020.2.5,MacIntel,60
,,,,z,0.089,0,24,24,24,1,paints/images/355.jpg,paints/images/400.jpg,25,xxr,001,2020-11-19_22h13.49.049,test3,2020.2.5,MacIntel,60
,,,,m,0.101,0,25,25,25,1,paints/images/346.jpg,paints/images/223.jpg,26,xxr,001,2020-11-19_22h13.49.049,test3,2020.2.5,MacIntel,60
,,,,z,0.071,0,26,26,26,1,paints/images/292.jpg,paints/images/122.jpg,27,xxr,001,2020-11-19_22h13.49.049,test3,2020.2.5,MacIntel,60
,,,,m,0.095,0,27,27,27,1,paints/images/81.jpg,paints/images/294.jpg,28,xxr,001,2020-11-19_22h13.49.049,test3,2020.2.5,MacIntel,60
,,,,z,0.057,0,28,28,28,1,paints/images/359.jpg,paints/images/370.jpg,29,xxr,001,2020-11-19_22h13.49.049,test3,2020.2.5,MacIntel,60
,,,,m,0.094,0,29,29,29,1,paints/images/88.jpg,paints/images/119.jpg,30,xxr,001,2020-11-19_22h13.49.049,test3,2020.2.5,MacIntel,60
,,,,z,0.077,0,30,30,30,1,paints/images/178.jpg,paints/images/47.jpg,31,xxr,001,2020-11-19_22h13.49.049,test3,2020.2.5,MacIntel,60
,,,,m,0.085,0,31,31,31,1,paints/images/139.jpg,paints/images/377.jpg,32,xxr,001,2020-11-19_22h13.49.049,test3,2020.2.5,MacIntel,60
,,,,z,0.076,0,32,32,32,1,paints/images/142.jpg,paints/images/379.jpg,33,xxr,001,2020-11-19_22h13.49.049,test3,2020.2.5,MacIntel,60
,,,,m,0.073,0,33,33,33,1,paints/images/366.jpg,paints/images/22.jpg,34,xxr,001,2020-11-19_22h13.49.049,test3,2020.2.5,MacIntel,60
,,,,z,0.094,0,34,34,34,1,paints/images/277.jpg,paints/images/365.jpg,35,xxr,001,2020-11-19_22h13.49.049,test3,2020.2.5,MacIntel,60
,,,,m,0.072,0,35,35,35,1,paints/images/406.jpg,paints/images/388.jpg,36,xxr,001,2020-11-19_22h13.49.049,test3,2020.2.5,MacIntel,60
,,,,z,0.109,0,36,36,36,1,paints/images/389.jpg,paints/images/104.jpg,37,xxr,001,2020-11-19_22h13.49.049,test3,2020.2.5,MacIntel,60
,,,,m,0.061,0,37,37,37,1,paints/images/20.jpg,paints/images/84.jpg,38,xxr,001,2020-11-19_22h13.49.049,test3,2020.2.5,MacIntel,60
,,,,z,0.118,0,38,38,38,1,paints/images/169.jpg,paints/images/163.jpg,39,xxr,001,2020-11-19_22h13.49.049,test3,2020.2.5,MacIntel,60
,,,,m,0.069,0,39,39,39,1,paints/images/58.jpg,paints/images/359.jpg,40,xxr,001,2020-11-19_22h13.49.049,test3,2020.2.5,MacIntel,60
,,,,z,0.091,0,40,40,40,1,paints/images/376.jpg,paints/images/256.jpg,41,xxr,001,2020-11-19_22h13.49.049,test3,2020.2.5,MacIntel,60
,,,,m,0.087,0,41,41,41,1,paints/images/33.jpg,paints/images/261.jpg,42,xxr,001,2020-11-19_22h13.49.049,test3,2020.2.5,MacIntel,60
,,,,z,0.106,0,42,42,42,1,paints/images/294.jpg,paints/images/96.jpg,43,xxr,001,2020-11-19_22h13.49.049,test3,2020.2.5,MacIntel,60
,,,,m,0.059,0,43,43,43,1,paints/images/269.jpg,paints/images/293.jpg,44,xxr,001,2020-11-19_22h13.49.049,test3,2020.2.5,MacIntel,60
,,,,z,0.869,0,44,44,44,1,paints/images/199.jpg,paints/images/284.jpg,45,xxr,001,2020-11-19_22h13.49.049,test3,2020.2.5,MacIntel,60
,,,,m,0.584,0,45,45,45,1,paints/images/255.jpg,paints/images/281.jpg,46,xxr,001,2020-11-19_22h13.49.049,test3,2020.2.5,MacIntel,60
,,,,z,0.285,0,46,46,46,1,paints/images/382.jpg,paints/images/4.jpg,47,xxr,001,2020-11-19_22h13.49.049,test3,2020.2.5,MacIntel,60
,,,,m,0.335,0,47,47,47,1,paints/images/111.jpg,paints/images/83.jpg,48,xxr,001,2020-11-19_22h13.49.049,test3,2020.2.5,MacIntel,60
,,,,z,0.26,0,48,48,48,1,paints/images/239.jpg,paints/images/151.jpg,49,xxr,001,2020-11-19_22h13.49.049,test3,2020.2.5,MacIntel,60
,,,,m,0.232,0,49,49,49,1,paints/images/84.jpg,paints/images/341.jpg,50,xxr,001,2020-11-19_22h13.49.049,test3,2020.2.5,MacIntel,60
,,,,z,0.187,0,50,50,50,1,paints/images/317.jpg,paints/images/159.jpg,51,xxr,001,2020-11-19_22h13.49.049,test3,2020.2.5,MacIntel,60
,,,,m,0.143,0,51,51,51,1,paints/images/153.jpg,paints/images/212.jpg,52,xxr,001,2020-11-19_22h13.49.049,test3,2020.2.5,MacIntel,60
,,,,z,0.188,0,52,52,52,1,paints/images/5.jpg,paints/images/361.jpg,53,xxr,001,2020-11-19_22h13.49.049,test3,2020.2.5,MacIntel,60
,,,,m,0.163,0,53,53,53,1,paints/images/319.jpg,paints/images/178.jpg,54,xxr,001,2020-11-19_22h13.49.049,test3,2020.2.5,MacIntel,60
,,,,z,0.168,0,54,54,54,1,paints/images/118.jpg,paints/images/275.jpg,55,xxr,001,2020-11-19_22h13.49.049,test3,2020.2.5,MacIntel,60
,,,,m,0.129,0,55,55,55,1,paints/images/213.jpg,paints/images/312.jpg,56,xxr,001,2020-11-19_22h13.49.049,test3,2020.2.5,MacIntel,60
,,,,z,0.125,0,56,56,56,1,paints/images/4.jpg,paints/images/131.jpg,57,xxr,001,2020-11-19_22h13.49.049,test3,2020.2.5,MacIntel,60
,,,,m,0.12,0,57,57,57,1,paints/images/206.jpg,paints/images/391.jpg,58,xxr,001,2020-11-19_22h13.49.049,test3,2020.2.5,MacIntel,60
,,,,m,0.554,0,58,58,58,1,paints/images/349.jpg,paints/images/240.jpg,59,xxr,001,2020-11-19_22h13.49.049,test3,2020.2.5,MacIntel,60
,,,,m,83.05,0,59,59,59,1,paints/images/174.jpg,paints/images/197.jpg,60,xxr,001,2020-11-19_22h13.49.049,test3,2020.2.5,MacIntel,60
,,,,z,2.605,0,60,60,60,1,paints/images/93.jpg,paints/images/330.jpg,61,xxr,001,2020-11-19_22h13.49.049,test3,2020.2.5,MacIntel,60
,,,,m,0.593,0,61,61,61,1,paints/images/262.jpg,paints/images/225.jpg,62,xxr,001,2020-11-19_22h13.49.049,test3,2020.2.5,MacIntel,60
,,,,z,0.413,0,62,62,62,1,paints/images/322.jpg,paints/images/267.jpg,63,xxr,001,2020-11-19_22h13.49.049,test3,2020.2.5,MacIntel,60
,,,,m,0.262,0,63,63,63,1,paints/images/104.jpg,paints/images/140.jpg,64,xxr,001,2020-11-19_22h13.49.049,test3,2020.2.5,MacIntel,60
,,,,z,0.131,0,64,64,64,1,paints/images/400.jpg,paints/images/355.jpg,65,xxr,001,2020-11-19_22h13.49.049,test3,2020.2.5,MacIntel,60
,,,,m,0.11,0,65,65,65,1,paints/images/89.jpg,paints/images/380.jpg,66,xxr,001,2020-11-19_22h13.49.049,test3,2020.2.5,MacIntel,60
,,,,z,0.247,0,66,66,66,1,paints/images/181.jpg,paints/images/195.jpg,67,xxr,001,2020-11-19_22h13.49.049,test3,2020.2.5,MacIntel,60
,,,,m,0.361,0,67,67,67,1,paints/images/130.jpg,paints/images/155.jpg,68,xxr,001,2020-11-19_22h13.49.049,test3,2020.2.5,MacIntel,60
,,,,z,24.772,0,68,68,68,1,paints/images/15.jpg,paints/images/55.jpg,69,xxr,001,2020-11-19_22h13.49.049,test3,2020.2.5,MacIntel,60
,,,,m,0.375,0,69,69,69,1,paints/images/393.jpg,paints/images/34.jpg,70,xxr,001,2020-11-19_22h13.49.049,test3,2020.2.5,MacIntel,60
,,,,z,0.371,0,70,70,70,1,paints/images/192.jpg,paints/images/351.jpg,71,xxr,001,2020-11-19_22h13.49.049,test3,2020.2.5,MacIntel,60
,,,,m,0.421,0,71,71,71,1,paints/images/57.jpg,paints/images/363.jpg,72,xxr,001,2020-11-19_22h13.49.049,test3,2020.2.5,MacIntel,60
,,,,z,0.275,0,72,72,72,1,paints/images/243.jpg,paints/images/295.jpg,73,xxr,001,2020-11-19_22h13.49.049,test3,2020.2.5,MacIntel,60
,,,,m,0.278,0,73,73,73,1,paints/images/196.jpg,paints/images/146.jpg,74,xxr,001,2020-11-19_22h13.49.049,test3,2020.2.5,MacIntel,60
,,,,z,0.366,0,74,74,74,1,paints/images/367.jpg,paints/images/332.jpg,75,xxr,001,2020-11-19_22h13.49.049,test3,2020.2.5,MacIntel,60
,,,,m,0.267,0,75,75,75,1,paints/images/249.jpg,paints/images/50.jpg,76,xxr,001,2020-11-19_22h13.49.049,test3,2020.2.5,MacIntel,60
,,,,z,0.433,0,76,76,76,1,paints/images/100.jpg,paints/images/91.jpg,77,xxr,001,2020-11-19_22h13.49.049,test3,2020.2.5,MacIntel,60
,,,,m,0.268,0,77,77,77,1,paints/images/301.jpg,paints/images/154.jpg,78,xxr,001,2020-11-19_22h13.49.049,test3,2020.2.5,MacIntel,60
,,,,m,0.334,0,78,78,78,1,paints/images/13.jpg,paints/images/308.jpg,79,xxr,001,2020-11-19_22h13.49.049,test3,2020.2.5,MacIntel,60
,,,,z,0.068,0,79,79,79,1,paints/images/11.jpg,paints/images/24.jpg,80,xxr,001,2020-11-19_22h13.49.049,test3,2020.2.5,MacIntel,60
,,,,m,0.434,0,80,80,80,1,paints/images/27.jpg,paints/images/114.jpg,81,xxr,001,2020-11-19_22h13.49.049,test3,2020.2.5,MacIntel,60
,,,,z,0.4,0,81,81,81,1,paints/images/334.jpg,paints/images/217.jpg,82,xxr,001,2020-11-19_22h13.49.049,test3,2020.2.5,MacIntel,60
,,,,m,0.254,0,82,82,82,1,paints/images/340.jpg,paints/images/320.jpg,83,xxr,001,2020-11-19_22h13.49.049,test3,2020.2.5,MacIntel,60
,,,,z,0.292,0,83,83,83,1,paints/images/204.jpg,paints/images/52.jpg,84,xxr,001,2020-11-19_22h13.49.049,test3,2020.2.5,MacIntel,60
,,,,m,0.237,0,84,84,84,1,paints/images/266.jpg,paints/images/179.jpg,85,xxr,001,2020-11-19_22h13.49.049,test3,2020.2.5,MacIntel,60
,,,,z,0.21,0,85,85,85,1,paints/images/309.jpg,paints/images/45.jpg,86,xxr,001,2020-11-19_22h13.49.049,test3,2020.2.5,MacIntel,60
,,,,m,0.185,0,86,86,86,1,paints/images/48.jpg,paints/images/352.jpg,87,xxr,001,2020-11-19_22h13.49.049,test3,2020.2.5,MacIntel,60
,,,,z,0.117,0,87,87,87,1,paints/images/238.jpg,paints/images/190.jpg,88,xxr,001,2020-11-19_22h13.49.049,test3,2020.2.5,MacIntel,60
,,,,m,0.182,0,88,88,88,1,paints/images/216.jpg,paints/images/207.jpg,89,xxr,001,2020-11-19_22h13.49.049,test3,2020.2.5,MacIntel,60
,,,,z,0.147,0,89,89,89,1,paints/images/228.jpg,paints/images/315.jpg,90,xxr,001,2020-11-19_22h13.49.049,test3,2020.2.5,MacIntel,60
,,,,z,118.814,0,90,90,90,1,paints/images/368.jpg,paints/images/221.jpg,91,xxr,001,2020-11-19_22h13.49.049,test3,2020.2.5,MacIntel,60
,,,,z,0.545,0,91,91,91,1,paints/images/402.jpg,paints/images/257.jpg,92,xxr,001,2020-11-19_22h13.49.049,test3,2020.2.5,MacIntel,60
,,,,z,0.519,0,92,92,92,1,paints/images/248.jpg,paints/images/296.jpg,93,xxr,001,2020-11-19_22h13.49.049,test3,2020.2.5,MacIntel,60
,,,,z,0.313,0,93,93,93,1,paints/images/234.jpg,paints/images/174.jpg,94,xxr,001,2020-11-19_22h13.49.049,test3,2020.2.5,MacIntel,60
,,,,z,0.335,0,94,94,94,1,paints/images/149.jpg,paints/images/204.jpg,95,xxr,001,2020-11-19_22h13.49.049,test3,2020.2.5,MacIntel,60
,,,,z,0.439,0,95,95,95,1,paints/images/56.jpg,paints/images/117.jpg,96,xxr,001,2020-11-19_22h13.49.049,test3,2020.2.5,MacIntel,60
,,,,z,0.341,0,96,96,96,1,paints/images/146.jpg,paints/images/287.jpg,97,xxr,001,2020-11-19_22h13.49.049,test3,2020.2.5,MacIntel,60
,,,,z,0.245,0,97,97,97,1,paints/images/221.jpg,paints/images/62.jpg,98,xxr,001,2020-11-19_22h13.49.049,test3,2020.2.5,MacIntel,60
,,,,z,0.245,0,98,98,98,1,paints/images/110.jpg,paints/images/321.jpg,99,xxr,001,2020-11-19_22h13.49.049,test3,2020.2.5,MacIntel,60
,,,,m,0.165,0,99,99,99,1,paints/images/67.jpg,paints/images/384.jpg,100,xxr,001,2020-11-19_22h13.49.049,test3,2020.2.5,MacIntel,60
,,,,z,0.249,0,100,100,100,1,paints/images/356.jpg,paints/images/137.jpg,101,xxr,001,2020-11-19_22h13.49.049,test3,2020.2.5,MacIntel,60
,,,,m,0.187,0,101,101,101,1,paints/images/274.jpg,paints/images/232.jpg,102,xxr,001,2020-11-19_22h13.49.049,test3,2020.2.5,MacIntel,60
,,,,z,0.146,0,102,102,102,1,paints/images/70.jpg,paints/images/183.jpg,103,xxr,001,2020-11-19_22h13.49.049,test3,2020.2.5,MacIntel,60
,,,,m,0.109,0,103,103,103,1,paints/images/10.jpg,paints/images/393.jpg,104,xxr,001,2020-11-19_22h13.49.049,test3,2020.2.5,MacIntel,60
,,,,z,0.127,0,104,104,104,1,paints/images/378.jpg,paints/images/181.jpg,105,xxr,001,2020-11-19_22h13.49.049,test3,2020.2.5,MacIntel,60
,,,,m,0.145,0,105,105,105,1,paints/images/303.jpg,paints/images/334.jpg,106,xxr,001,2020-11-19_22h13.49.049,test3,2020.2.5,MacIntel,60
,,,,z,0.139,0,106,106,106,1,paints/images/328.jpg,paints/images/344.jpg,107,xxr,001,2020-11-19_22h13.49.049,test3,2020.2.5,MacIntel,60
,,,,m,0.206,0,107,107,107,1,paints/images/397.jpg,paints/images/318.jpg,108,xxr,001,2020-11-19_22h13.49.049,test3,2020.2.5,MacIntel,60
,,,,m,0.221,0,108,108,108,1,paints/images/365.jpg,paints/images/211.jpg,109,xxr,001,2020-11-19_22h13.49.049,test3,2020.2.5,MacIntel,60
,,,,z,0.197,0,109,109,109,1,paints/images/23.jpg,paints/images/46.jpg,110,xxr,001,2020-11-19_22h13.49.049,test3,2020.2.5,MacIntel,60
,,,,m,0.175,0,110,110,110,1,paints/images/304.jpg,paints/images/11.jpg,111,xxr,001,2020-11-19_22h13.49.049,test3,2020.2.5,MacIntel,60
,,,,m,0.216,0,111,111,111,1,paints/images/226.jpg,paints/images/6.jpg,112,xxr,001,2020-11-19_22h13.49.049,test3,2020.2.5,MacIntel,60
,,,,z,0.158,0,112,112,112,1,paints/images/170.jpg,paints/images/262.jpg,113,xxr,001,2020-11-19_22h13.49.049,test3,2020.2.5,MacIntel,60
,,,,m,0.164,0,113,113,113,1,paints/images/259.jpg,paints/images/343.jpg,114,xxr,001,2020-11-19_22h13.49.049,test3,2020.2.5,MacIntel,60
,,,,m,0.188,0,114,114,114,1,paints/images/19.jpg,paints/images/394.jpg,115,xxr,001,2020-11-19_22h13.49.049,test3,2020.2.5,MacIntel,60
,,,,z,0.183,0,115,115,115,1,paints/images/215.jpg,paints/images/19.jpg,116,xxr,001,2020-11-19_22h13.49.049,test3,2020.2.5,MacIntel,60
,,,,m,0.173,0,116,116,116,1,paints/images/52.jpg,paints/images/360.jpg,117,xxr,001,2020-11-19_22h13.49.049,test3,2020.2.5,MacIntel,60
,,,,z,0.166,0,117,117,117,1,paints/images/99.jpg,paints/images/328.jpg,118,xxr,001,2020-11-19_22h13.49.049,test3,2020.2.5,MacIntel,60
,,,,m,0.136,0,118,118,118,1,paints/images/150.jpg,paints/images/164.jpg,119,xxr,001,2020-11-19_22h13.49.049,test3,2020.2.5,MacIntel,60
,,,,z,0.151,0,119,119,119,1,paints/images/172.jpg,paints/images/213.jpg,120,xxr,001,2020-11-19_22h13.49.049,test3,2020.2.5,MacIntel,60
,,,,m,0.114,0,120,120,120,1,paints/images/50.jpg,paints/images/101.jpg,121,xxr,001,2020-11-19_22h13.49.049,test3,2020.2.5,MacIntel,60
,,,,z,0.189,0,121,121,121,1,paints/images/358.jpg,paints/images/354.jpg,122,xxr,001,2020-11-19_22h13.49.049,test3,2020.2.5,MacIntel,60
,,,,m,0.199,0,122,122,122,1,paints/images/257.jpg,paints/images/265.jpg,123,xxr,001,2020-11-19_22h13.49.049,test3,2020.2.5,MacIntel,60
,,,,z,0.251,0,123,123,123,1,paints/images/91.jpg,paints/images/342.jpg,124,xxr,001,2020-11-19_22h13.49.049,test3,2020.2.5,MacIntel,60
,,,,m,0.267,0,124,124,124,1,paints/images/168.jpg,paints/images/132.jpg,125,xxr,001,2020-11-19_22h13.49.049,test3,2020.2.5,MacIntel,60
,,,,m,0.17,0,125,125,125,1,paints/images/280.jpg,paints/images/98.jpg,126,xxr,001,2020-11-19_22h13.49.049,test3,2020.2.5,MacIntel,60
,,,,z,0.099,0,126,126,126,1,paints/images/261.jpg,paints/images/40.jpg,127,xxr,001,2020-11-19_22h13.49.049,test3,2020.2.5,MacIntel,60
,,,,m,0.166,0,127,127,127,1,paints/images/333.jpg,paints/images/66.jpg,128,xxr,001,2020-11-19_22h13.49.049,test3,2020.2.5,MacIntel,60
,,,,m,0.205,0,128,128,128,1,paints/images/96.jpg,paints/images/82.jpg,129,xxr,001,2020-11-19_22h13.49.049,test3,2020.2.5,MacIntel,60
,,,,m,0.183,0,129,129,129,1,paints/images/32.jpg,paints/images/325.jpg,130,xxr,001,2020-11-19_22h13.49.049,test3,2020.2.5,MacIntel,60
,,,,z,0.067,0,130,130,130,1,paints/images/268.jpg,paints/images/167.jpg,131,xxr,001,2020-11-19_22h13.49.049,test3,2020.2.5,MacIntel,60
,,,,m,0.164,0,131,131,131,1,paints/images/162.jpg,paints/images/25.jpg,132,xxr,001,2020-11-19_22h13.49.049,test3,2020.2.5,MacIntel,60
,,,,m,0.182,0,132,132,132,1,paints/images/53.jpg,paints/images/305.jpg,133,xxr,001,2020-11-19_22h13.49.049,test3,2020.2.5,MacIntel,60
,,,,z,0.3,0,133,133,133,1,paints/images/263.jpg,paints/images/209.jpg,134,xxr,001,2020-11-19_22h13.49.049,test3,2020.2.5,MacIntel,60
,,,,m,0.303,0,134,134,134,1,paints/images/92.jpg,paints/images/364.jpg,135,xxr,001,2020-11-19_22h13.49.049,test3,2020.2.5,MacIntel,60
,,,,m,0.328,0,135,135,135,1,paints/images/61.jpg,paints/images/291.jpg,136,xxr,001,2020-11-19_22h13.49.049,test3,2020.2.5,MacIntel,60
,,,,z,0.387,0,136,136,136,1,paints/images/293.jpg,paints/images/283.jpg,137,xxr,001,2020-11-19_22h13.49.049,test3,2020.2.5,MacIntel,60
,,,,m,0.127,0,137,137,137,1,paints/images/229.jpg,paints/images/173.jpg,138,xxr,001,2020-11-19_22h13.49.049,test3,2020.2.5,MacIntel,60
,,,,m,0.215,0,138,138,138,1,paints/images/41.jpg,paints/images/133.jpg,139,xxr,001,2020-11-19_22h13.49.049,test3,2020.2.5,MacIntel,60
,,,,z,0.274,0,139,139,139,1,paints/images/182.jpg,paints/images/348.jpg,140,xxr,001,2020-11-19_22h13.49.049,test3,2020.2.5,MacIntel,60
,,,,m,0.121,0,140,140,140,1,paints/images/379.jpg,paints/images/228.jpg,141,xxr,001,2020-11-19_22h13.49.049,test3,2020.2.5,MacIntel,60
,,,,m,0.239,0,141,141,141,1,paints/images/188.jpg,paints/images/13.jpg,142,xxr,001,2020-11-19_22h13.49.049,test3,2020.2.5,MacIntel,60
,,,,z,0.319,0,142,142,142,1,paints/images/40.jpg,paints/images/329.jpg,143,xxr,001,2020-11-19_22h13.49.049,test3,2020.2.5,MacIntel,60
,,,,m,0.121,0,143,143,143,1,paints/images/323.jpg,paints/images/165.jpg,144,xxr,001,2020-11-19_22h13.49.049,test3,2020.2.5,MacIntel,60
,,,,m,0.222,0,144,144,144,1,paints/images/78.jpg,paints/images/407.jpg,145,xxr,001,2020-11-19_22h13.49.049,test3,2020.2.5,MacIntel,60
,,,,z,0.227,0,145,145,145,1,paints/images/242.jpg,paints/images/75.jpg,146,xxr,001,2020-11-19_22h13.49.049,test3,2020.2.5,MacIntel,60
,,,,m,0.15,0,146,146,146,1,paints/images/62.jpg,paints/images/187.jpg,147,xxr,001,2020-11-19_22h13.49.049,test3,2020.2.5,MacIntel,60
,,,,m,0.179,0,147,147,147,1,paints/images/131.jpg,paints/images/285.jpg,148,xxr,001,2020-11-19_22h13.49.049,test3,2020.2.5,MacIntel,60
,,,,z,0.187,0,148,148,148,1,paints/images/241.jpg,paints/images/97.jpg,149,xxr,001,2020-11-19_22h13.49.049,test3,2020.2.5,MacIntel,60
,,,,m,0.163,0,149,149,149,1,paints/images/132.jpg,paints/images/289.jpg,150,xxr,001,2020-11-19_22h13.49.049,test3,2020.2.5,MacIntel,60
,,,,m,0.208,0,150,150,150,1,paints/images/185.jpg,paints/images/54.jpg,151,xxr,001,2020-11-19_22h13.49.049,test3,2020.2.5,MacIntel,60
,,,,z,0.26,0,151,151,151,1,paints/images/272.jpg,paints/images/51.jpg,152,xxr,001,2020-11-19_22h13.49.049,test3,2020.2.5,MacIntel,60
,,,,m,0.217,0,152,152,152,1,paints/images/403.jpg,paints/images/71.jpg,153,xxr,001,2020-11-19_22h13.49.049,test3,2020.2.5,MacIntel,60
,,,,m,0.238,0,153,153,153,1,paints/images/202.jpg,paints/images/219.jpg,154,xxr,001,2020-11-19_22h13.49.049,test3,2020.2.5,MacIntel,60
,,,,z,0.338,0,154,154,154,1,paints/images/34.jpg,paints/images/271.jpg,155,xxr,001,2020-11-19_22h13.49.049,test3,2020.2.5,MacIntel,60
,,,,m,0.324,0,155,155,155,1,paints/images/296.jpg,paints/images/90.jpg,156,xxr,001,2020-11-19_22h13.49.049,test3,2020.2.5,MacIntel,60
,,,,z,0.175,0,156,156,156,1,paints/images/25.jpg,paints/images/338.jpg,157,xxr,001,2020-11-19_22h13.49.049,test3,2020.2.5,MacIntel,60
,,,,m,0.104,0,157,157,157,1,paints/images/396.jpg,paints/images/78.jpg,158,xxr,001,2020-11-19_22h13.49.049,test3,2020.2.5,MacIntel,60
,,,,z,0.138,0,158,158,158,1,paints/images/72.jpg,paints/images/111.jpg,159,xxr,001,2020-11-19_22h13.49.049,test3,2020.2.5,MacIntel,60
,,,,m,0.099,0,159,159,159,1,paints/images/164.jpg,paints/images/16.jpg,160,xxr,001,2020-11-19_22h13.49.049,test3,2020.2.5,MacIntel,60
,,,,z,0.111,0,160,160,160,1,paints/images/387.jpg,paints/images/244.jpg,161,xxr,001,2020-11-19_22h13.49.049,test3,2020.2.5,MacIntel,60
,,,,m,0.079,0,161,161,161,1,paints/images/64.jpg,paints/images/260.jpg,162,xxr,001,2020-11-19_22h13.49.049,test3,2020.2.5,MacIntel,60
,,,,z,0.141,0,162,162,162,1,paints/images/160.jpg,paints/images/63.jpg,163,xxr,001,2020-11-19_22h13.49.049,test3,2020.2.5,MacIntel,60
,,,,m,0.072,0,163,163,163,1,paints/images/3.jpg,paints/images/282.jpg,164,xxr,001,2020-11-19_22h13.49.049,test3,2020.2.5,MacIntel,60
,,,,z,0.166,0,164,164,164,1,paints/images/307.jpg,paints/images/152.jpg,165,xxr,001,2020-11-19_22h13.49.049,test3,2020.2.5,MacIntel,60
,,,,m,0.042,0,165,165,165,1,paints/images/311.jpg,paints/images/123.jpg,166,xxr,001,2020-11-19_22h13.49.049,test3,2020.2.5,MacIntel,60
,,,,m,0.209,0,166,166,166,1,paints/images/143.jpg,paints/images/286.jpg,167,xxr,001,2020-11-19_22h13.49.049,test3,2020.2.5,MacIntel,60
,,,,m,0.233,0,167,167,167,1,paints/images/97.jpg,paints/images/216.jpg,168,xxr,001,2020-11-19_22h13.49.049,test3,2020.2.5,MacIntel,60
,,,,m,0.167,0,168,168,168,1,paints/images/395.jpg,paints/images/170.jpg,169,xxr,001,2020-11-19_22h13.49.049,test3,2020.2.5,MacIntel,60
,,,,z,0.2,0,169,169,169,1,paints/images/151.jpg,paints/images/26.jpg,170,xxr,001,2020-11-19_22h13.49.049,test3,2020.2.5,MacIntel,60
,,,,m,0.121,0,170,170,170,1,paints/images/51.jpg,paints/images/32.jpg,171,xxr,001,2020-11-19_22h13.49.049,test3,2020.2.5,MacIntel,60
,,,,m,0.175,0,171,171,171,1,paints/images/305.jpg,paints/images/176.jpg,172,xxr,001,2020-11-19_22h13.49.049,test3,2020.2.5,MacIntel,60
,,,,z,0.233,0,172,172,172,1,paints/images/137.jpg,paints/images/48.jpg,173,xxr,001,2020-11-19_22h13.49.049,test3,2020.2.5,MacIntel,60
,,,,m,0.146,0,173,173,173,1,paints/images/65.jpg,paints/images/243.jpg,174,xxr,001,2020-11-19_22h13.49.049,test3,2020.2.5,MacIntel,60
,,,,m,0.171,0,174,174,174,1,paints/images/115.jpg,paints/images/210.jpg,175,xxr,001,2020-11-19_22h13.49.049,test3,2020.2.5,MacIntel,60
,,,,z,0.218,0,175,175,175,1,paints/images/310.jpg,paints/images/58.jpg,176,xxr,001,2020-11-19_22h13.49.049,test3,2020.2.5,MacIntel,60
,,,,m,0.125,0,176,176,176,1,paints/images/1.jpg,paints/images/112.jpg,177,xxr,001,2020-11-19_22h13.49.049,test3,2020.2.5,MacIntel,60
,,,,m,0.196,0,177,177,177,1,paints/images/125.jpg,paints/images/17.jpg,178,xxr,001,2020-11-19_22h13.49.049,test3,2020.2.5,MacIntel,60
,,,,z,1.015,0,178,178,178,1,paints/images/279.jpg,paints/images/166.jpg,179,xxr,001,2020-11-19_22h13.49.049,test3,2020.2.5,MacIntel,60
,,,,m,0.584,0,179,179,179,1,paints/images/316.jpg,paints/images/306.jpg,180,xxr,001,2020-11-19_22h13.49.049,test3,2020.2.5,MacIntel,60
,,,,m,27.8,0,180,180,180,1,paints/images/22.jpg,paints/images/214.jpg,181,xxr,001,2020-11-19_22h13.49.049,test3,2020.2.5,MacIntel,60
,,,,z,0.903,0,181,181,181,1,paints/images/54.jpg,paints/images/235.jpg,182,xxr,001,2020-11-19_22h13.49.049,test3,2020.2.5,MacIntel,60
,,,,m,0.258,0,182,182,182,1,paints/images/225.jpg,paints/images/160.jpg,183,xxr,001,2020-11-19_22h13.49.049,test3,2020.2.5,MacIntel,60
,,,,z,0.428,0,183,183,183,1,paints/images/339.jpg,paints/images/59.jpg,184,xxr,001,2020-11-19_22h13.49.049,test3,2020.2.5,MacIntel,60
,,,,m,0.234,0,184,184,184,1,paints/images/409.jpg,paints/images/180.jpg,185,xxr,001,2020-11-19_22h13.49.049,test3,2020.2.5,MacIntel,60
,,,,m,2.056,0,185,185,185,1,paints/images/145.jpg,paints/images/115.jpg,186,xxr,001,2020-11-19_22h13.49.049,test3,2020.2.5,MacIntel,60
,,,,z,0.25,0,186,186,186,1,paints/images/147.jpg,paints/images/37.jpg,187,xxr,001,2020-11-19_22h13.49.049,test3,2020.2.5,MacIntel,60
,,,,m,0.135,0,187,187,187,1,paints/images/288.jpg,paints/images/64.jpg,188,xxr,001,2020-11-19_22h13.49.049,test3,2020.2.5,MacIntel,60
,,,,m,0.259,0,188,188,188,1,paints/images/235.jpg,paints/images/201.jpg,189,xxr,001,2020-11-19_22h13.49.049,test3,2020.2.5,MacIntel,60
,,,,z,0.15,0,189,189,189,1,paints/images/313.jpg,paints/images/2.jpg,190,xxr,001,2020-11-19_22h13.49.049,test3,2020.2.5,MacIntel,60
,,,,m,0.101,0,190,190,190,1,paints/images/329.jpg,paints/images/38.jpg,191,xxr,001,2020-11-19_22h13.49.049,test3,2020.2.5,MacIntel,60
,,,,z,0.11,0,191,191,191,1,paints/images/9.jpg,paints/images/241.jpg,192,xxr,001,2020-11-19_22h13.49.049,test3,2020.2.5,MacIntel,60
,,,,m,0.187,0,192,192,192,1,paints/images/364.jpg,paints/images/44.jpg,193,xxr,001,2020-11-19_22h13.49.049,test3,2020.2.5,MacIntel,60
,,,,m,0.146,0,193,193,193,1,paints/images/14.jpg,paints/images/109.jpg,194,xxr,001,2020-11-19_22h13.49.049,test3,2020.2.5,MacIntel,60
,,,,m,0.152,0,194,194,194,1,paints/images/0.jpg,paints/images/14.jpg,195,xxr,001,2020-11-19_22h13.49.049,test3,2020.2.5,MacIntel,60
,,,,m,0.136,0,195,195,195,1,paints/images/398.jpg,paints/images/247.jpg,196,xxr,001,2020-11-19_22h13.49.049,test3,2020.2.5,MacIntel,60
,,,,z,0.088,0,196,196,196,1,paints/images/377.jpg,paints/images/237.jpg,197,xxr,001,2020-11-19_22h13.49.049,test3,2020.2.5,MacIntel,60
,,,,m,0.116,0,197,197,197,1,paints/images/246.jpg,paints/images/184.jpg,198,xxr,001,2020-11-19_22h13.49.049,test3,2020.2.5,MacIntel,60
,,,,z,0.156,0,198,198,198,1,paints/images/299.jpg,paints/images/301.jpg,199,xxr,001,2020-11-19_22h13.49.049,test3,2020.2.5,MacIntel,60
,,,,m,0.033,0,199,199,199,1,paints/images/116.jpg,paints/images/148.jpg,200,xxr,001,2020-11-19_22h13.49.049,test3,2020.2.5,MacIntel,60
,,,,m,0.133,0,200,200,200,1,paints/images/267.jpg,paints/images/336.jpg,201,xxr,001,2020-11-19_22h13.49.049,test3,2020.2.5,MacIntel,60
,,,,z,0.062,0,201,201,201,1,paints/images/6.jpg,paints/images/182.jpg,202,xxr,001,2020-11-19_22h13.49.049,test3,2020.2.5,MacIntel,60
,,,,m,0.109,0,202,202,202,1,paints/images/348.jpg,paints/images/105.jpg,203,xxr,001,2020-11-19_22h13.49.049,test3,2020.2.5,MacIntel,60
,,,,m,0.164,0,203,203,203,1,paints/images/404.jpg,paints/images/372.jpg,204,xxr,001,2020-11-19_22h13.49.049,test3,2020.2.5,MacIntel,60
,,,,m,0.184,0,204,204,204,1,paints/images/324.jpg,paints/images/134.jpg,205,xxr,001,2020-11-19_22h13.49.049,test3,2020.2.5,MacIntel,60
,,,,z,0.233,0,205,205,205,1,paints/images/278.jpg,paints/images/269.jpg,206,xxr,001,2020-11-19_22h13.49.049,test3,2020.2.5,MacIntel,60
,,,,m,0.259,0,206,206,206,1,paints/images/237.jpg,paints/images/375.jpg,207,xxr,001,2020-11-19_22h13.49.049,test3,2020.2.5,MacIntel,60
,,,,z,0.234,0,207,207,207,1,paints/images/109.jpg,paints/images/224.jpg,208,xxr,001,2020-11-19_22h13.49.049,test3,2020.2.5,MacIntel,60
,,,,m,0.219,0,208,208,208,1,paints/images/318.jpg,paints/images/127.jpg,209,xxr,001,2020-11-19_22h13.49.049,test3,2020.2.5,MacIntel,60
,,,,z,0.207,0,209,209,209,1,paints/images/120.jpg,paints/images/254.jpg,210,xxr,001,2020-11-19_22h13.49.049,test3,2020.2.5,MacIntel,60
,,,,m,0.119,0,210,210,210,1,paints/images/86.jpg,paints/images/67.jpg,211,xxr,001,2020-11-19_22h13.49.049,test3,2020.2.5,MacIntel,60
,,,,z,0.231,0,211,211,211,1,paints/images/302.jpg,paints/images/245.jpg,212,xxr,001,2020-11-19_22h13.49.049,test3,2020.2.5,MacIntel,60
,,,,m,0.142,0,212,212,212,1,paints/images/94.jpg,paints/images/242.jpg,213,xxr,001,2020-11-19_22h13.49.049,test3,2020.2.5,MacIntel,60
,,,,z,0.24,0,213,213,213,1,paints/images/295.jpg,paints/images/72.jpg,214,xxr,001,2020-11-19_22h13.49.049,test3,2020.2.5,MacIntel,60
,,,,m,0.146,0,214,214,214,1,paints/images/227.jpg,paints/images/175.jpg,215,xxr,001,2020-11-19_22h13.49.049,test3,2020.2.5,MacIntel,60
,,,,z,0.168,0,215,215,215,1,paints/images/26.jpg,paints/images/203.jpg,216,xxr,001,2020-11-19_22h13.49.049,test3,2020.2.5,MacIntel,60
,,,,m,0.136,0,216,216,216,1,paints/images/45.jpg,paints/images/272.jpg,217,xxr,001,2020-11-19_22h13.49.049,test3,2020.2.5,MacIntel,60
,,,,z,0.192,0,217,217,217,1,paints/images/410.jpg,paints/images/185.jpg,218,xxr,001,2020-11-19_22h13.49.049,test3,2020.2.5,MacIntel,60
,,,,m,0.109,0,218,218,218,1,paints/images/380.jpg,paints/images/0.jpg,219,xxr,001,2020-11-19_22h13.49.049,test3,2020.2.5,MacIntel,60
,,,,z,0.296,0,219,219,219,1,paints/images/370.jpg,paints/images/106.jpg,220,xxr,001,2020-11-19_22h13.49.049,test3,2020.2.5,MacIntel,60
,,,,m,0.126,0,220,220,220,1,paints/images/102.jpg,paints/images/309.jpg,221,xxr,001,2020-11-19_22h13.49.049,test3,2020.2.5,MacIntel,60
,,,,z,0.182,0,221,221,221,1,paints/images/167.jpg,paints/images/299.jpg,222,xxr,001,2020-11-19_22h13.49.049,test3,2020.2.5,MacIntel,60
,,,,m,0.117,0,222,222,222,1,paints/images/290.jpg,paints/images/192.jpg,223,xxr,001,2020-11-19_22h13.49.049,test3,2020.2.5,MacIntel,60
,,,,z,0.176,0,223,223,223,1,paints/images/82.jpg,paints/images/353.jpg,224,xxr,001,2020-11-19_22h13.49.049,test3,2020.2.5,MacIntel,60
,,,,m,0.138,0,224,224,224,1,paints/images/75.jpg,paints/images/404.jpg,225,xxr,001,2020-11-19_22h13.49.049,test3,2020.2.5,MacIntel,60
,,,,z,0.169,0,225,225,225,1,paints/images/117.jpg,paints/images/100.jpg,226,xxr,001,2020-11-19_22h13.49.049,test3,2020.2.5,MacIntel,60
,,,,m,0.16,0,226,226,226,1,paints/images/200.jpg,paints/images/378.jpg,227,xxr,001,2020-11-19_22h13.49.049,test3,2020.2.5,MacIntel,60
,,,,z,0.183,0,227,227,227,1,paints/images/371.jpg,paints/images/57.jpg,228,xxr,001,2020-11-19_22h13.49.049,test3,2020.2.5,MacIntel,60
,,,,m,0.136,0,228,228,228,1,paints/images/87.jpg,paints/images/302.jpg,229,xxr,001,2020-11-19_22h13.49.049,test3,2020.2.5,MacIntel,60
,,,,m,0.464,0,229,229,229,1,paints/images/208.jpg,paints/images/39.jpg,230,xxr,001,2020-11-19_22h13.49.049,test3,2020.2.5,MacIntel,60
,,,,m,0.204,0,230,230,230,1,paints/images/198.jpg,paints/images/200.jpg,231,xxr,001,2020-11-19_22h13.49.049,test3,2020.2.5,MacIntel,60
,,,,z,0.304,0,231,231,231,1,paints/images/43.jpg,paints/images/42.jpg,232,xxr,001,2020-11-19_22h13.49.049,test3,2020.2.5,MacIntel,60
,,,,m,0.245,0,232,232,232,1,paints/images/286.jpg,paints/images/376.jpg,233,xxr,001,2020-11-19_22h13.49.049,test3,2020.2.5,MacIntel,60
,,,,z,0.411,0,233,233,233,1,paints/images/275.jpg,paints/images/76.jpg,234,xxr,001,2020-11-19_22h13.49.049,test3,2020.2.5,MacIntel,60
,,,,m,0.369,0,234,234,234,1,paints/images/138.jpg,paints/images/129.jpg,235,xxr,001,2020-11-19_22h13.49.049,test3,2020.2.5,MacIntel,60
,,,,z,0.464,0,235,235,235,1,paints/images/386.jpg,paints/images/366.jpg,236,xxr,001,2020-11-19_22h13.49.049,test3,2020.2.5,MacIntel,60
,,,,m,0.226,0,236,236,236,1,paints/images/232.jpg,paints/images/215.jpg,237,xxr,001,2020-11-19_22h13.49.049,test3,2020.2.5,MacIntel,60
,,,,z,1.034,0,237,237,237,1,paints/images/122.jpg,paints/images/199.jpg,238,xxr,001,2020-11-19_22h13.49.049,test3,2020.2.5,MacIntel,60
,,,,m,0.223,0,238,238,238,1,paints/images/388.jpg,paints/images/169.jpg,239,xxr,001,2020-11-19_22h13.49.049,test3,2020.2.5,MacIntel,60
,,,,z,0.366,0,239,239,239,1,paints/images/399.jpg,paints/images/229.jpg,240,xxr,001,2020-11-19_22h13.49.049,test3,2020.2.5,MacIntel,60
,,,,m,0.13,0,240,240,240,1,paints/images/300.jpg,paints/images/1.jpg,241,xxr,001,2020-11-19_22h13.49.049,test3,2020.2.5,MacIntel,60
,,,,z,0.218,0,241,241,241,1,paints/images/195.jpg,paints/images/399.jpg,242,xxr,001,2020-11-19_22h13.49.049,test3,2020.2.5,MacIntel,60
,,,,m,0.136,0,242,242,242,1,paints/images/281.jpg,paints/images/277.jpg,243,xxr,001,2020-11-19_22h13.49.049,test3,2020.2.5,MacIntel,60
,,,,z,0.121,0,243,243,243,1,paints/images/103.jpg,paints/images/288.jpg,244,xxr,001,2020-11-19_22h13.49.049,test3,2020.2.5,MacIntel,60
,,,,m,0.127,0,244,244,244,1,paints/images/297.jpg,paints/images/222.jpg,245,xxr,001,2020-11-19_22h13.49.049,test3,2020.2.5,MacIntel,60
,,,,z,0.122,0,245,245,245,1,paints/images/394.jpg,paints/images/258.jpg,246,xxr,001,2020-11-19_22h13.49.049,test3,2020.2.5,MacIntel,60
,,,,m,0.137,0,246,246,246,1,paints/images/73.jpg,paints/images/49.jpg,247,xxr,001,2020-11-19_22h13.49.049,test3,2020.2.5,MacIntel,60
,,,,z,0.107,0,247,247,247,1,paints/images/112.jpg,paints/images/80.jpg,248,xxr,001,2020-11-19_22h13.49.049,test3,2020.2.5,MacIntel,60
,,,,m,0.155,0,248,248,248,1,paints/images/245.jpg,paints/images/358.jpg,249,xxr,001,2020-11-19_22h13.49.049,test3,2020.2.5,MacIntel,60
,,,,z,0.133,0,249,249,249,1,paints/images/347.jpg,paints/images/143.jpg,250,xxr,001,2020-11-19_22h13.49.049,test3,2020.2.5,MacIntel,60
,,,,m,0.138,0,250,250,250,1,paints/images/352.jpg,paints/images/145.jpg,251,xxr,001,2020-11-19_22h13.49.049,test3,2020.2.5,MacIntel,60
,,,,z,0.107,0,251,251,251,1,paints/images/69.jpg,paints/images/162.jpg,252,xxr,001,2020-11-19_22h13.49.049,test3,2020.2.5,MacIntel,60
,,,,m,0.135,0,252,252,252,1,paints/images/381.jpg,paints/images/202.jpg,253,xxr,001,2020-11-19_22h13.49.049,test3,2020.2.5,MacIntel,60
,,,,z,0.073,0,253,253,253,1,paints/images/361.jpg,paints/images/340.jpg,254,xxr,001,2020-11-19_22h13.49.049,test3,2020.2.5,MacIntel,60
,,,,m,0.166,0,254,254,254,1,paints/images/217.jpg,paints/images/9.jpg,255,xxr,001,2020-11-19_22h13.49.049,test3,2020.2.5,MacIntel,60
,,,,z,0.086,0,255,255,255,1,paints/images/8.jpg,paints/images/409.jpg,256,xxr,001,2020-11-19_22h13.49.049,test3,2020.2.5,MacIntel,60
,,,,m,0.174,0,256,256,256,1,paints/images/59.jpg,paints/images/33.jpg,257,xxr,001,2020-11-19_22h13.49.049,test3,2020.2.5,MacIntel,60
,,,,z,0.116,0,257,257,257,1,paints/images/21.jpg,paints/images/311.jpg,258,xxr,001,2020-11-19_22h13.49.049,test3,2020.2.5,MacIntel,60
,,,,m,0.133,0,258,258,258,1,paints/images/408.jpg,paints/images/31.jpg,259,xxr,001,2020-11-19_22h13.49.049,test3,2020.2.5,MacIntel,60
,,,,z,0.15,0,259,259,259,1,paints/images/98.jpg,paints/images/3.jpg,260,xxr,001,2020-11-19_22h13.49.049,test3,2020.2.5,MacIntel,60
,,,,m,0.111,0,260,260,260,1,paints/images/336.jpg,paints/images/138.jpg,261,xxr,001,2020-11-19_22h13.49.049,test3,2020.2.5,MacIntel,60
,,,,z,0.108,0,261,261,261,1,paints/images/186.jpg,paints/images/395.jpg,262,xxr,001,2020-11-19_22h13.49.049,test3,2020.2.5,MacIntel,60
,,,,m,0.114,0,262,262,262,1,paints/images/76.jpg,paints/images/405.jpg,263,xxr,001,2020-11-19_22h13.49.049,test3,2020.2.5,MacIntel,60
,,,,z,0.131,0,263,263,263,1,paints/images/171.jpg,paints/images/381.jpg,264,xxr,001,2020-11-19_22h13.49.049,test3,2020.2.5,MacIntel,60
,,,,m,0.1,0,264,264,264,1,paints/images/220.jpg,paints/images/70.jpg,265,xxr,001,2020-11-19_22h13.49.049,test3,2020.2.5,MacIntel,60
,,,,z,0.235,0,265,265,265,1,paints/images/337.jpg,paints/images/339.jpg,266,xxr,001,2020-11-19_22h13.49.049,test3,2020.2.5,MacIntel,60
,,,,m,0.235,0,266,266,266,1,paints/images/258.jpg,paints/images/85.jpg,267,xxr,001,2020-11-19_22h13.49.049,test3,2020.2.5,MacIntel,60
,,,,z,0.174,0,267,267,267,1,paints/images/273.jpg,paints/images/113.jpg,268,xxr,001,2020-11-19_22h13.49.049,test3,2020.2.5,MacIntel,60
,,,,m,0.187,0,268,268,268,1,paints/images/353.jpg,paints/images/368.jpg,269,xxr,001,2020-11-19_22h13.49.049,test3,2020.2.5,MacIntel,60
,,,,z,0.199,0,269,269,269,1,paints/images/187.jpg,paints/images/86.jpg,270,xxr,001,2020-11-19_22h13.49.049,test3,2020.2.5,MacIntel,60
,,,,m,0.143,0,270,270,270,1,paints/images/176.jpg,paints/images/193.jpg,271,xxr,001,2020-11-19_22h13.49.049,test3,2020.2.5,MacIntel,60
,,,,z,0.218,0,271,271,271,1,paints/images/175.jpg,paints/images/194.jpg,272,xxr,001,2020-11-19_22h13.49.049,test3,2020.2.5,MacIntel,60
,,,,m,0.232,0,272,272,272,1,paints/images/407.jpg,paints/images/81.jpg,273,xxr,001,2020-11-19_22h13.49.049,test3,2020.2.5,MacIntel,60
,,,,z,0.24,0,273,273,273,1,paints/images/276.jpg,paints/images/77.jpg,274,xxr,001,2020-11-19_22h13.49.049,test3,2020.2.5,MacIntel,60
,,,,m,0.317,0,274,274,274,1,paints/images/291.jpg,paints/images/314.jpg,275,xxr,001,2020-11-19_22h13.49.049,test3,2020.2.5,MacIntel,60
,,,,z,0.3,0,275,275,275,1,paints/images/127.jpg,paints/images/36.jpg,276,xxr,001,2020-11-19_22h13.49.049,test3,2020.2.5,MacIntel,60
,,,,m,0.203,0,276,276,276,1,paints/images/372.jpg,paints/images/161.jpg,277,xxr,001,2020-11-19_22h13.49.049,test3,2020.2.5,MacIntel,60
,,,,z,0.219,0,277,277,277,1,paints/images/283.jpg,paints/images/350.jpg,278,xxr,001,2020-11-19_22h13.49.049,test3,2020.2.5,MacIntel,60
,,,,m,0.262,0,278,278,278,1,paints/images/106.jpg,paints/images/68.jpg,279,xxr,001,2020-11-19_22h13.49.049,test3,2020.2.5,MacIntel,60
,,,,z,0.219,0,279,279,279,1,paints/images/224.jpg,paints/images/266.jpg,280,xxr,001,2020-11-19_22h13.49.049,test3,2020.2.5,MacIntel,60
,,,,m,0.219,0,280,280,280,1,paints/images/375.jpg,paints/images/264.jpg,281,xxr,001,2020-11-19_22h13.49.049,test3,2020.2.5,MacIntel,60
,,,,z,0.331,0,281,281,281,1,paints/images/47.jpg,paints/images/87.jpg,282,xxr,001,2020-11-19_22h13.49.049,test3,2020.2.5,MacIntel,60
,,,,m,0.201,0,282,282,282,1,paints/images/38.jpg,paints/images/298.jpg,283,xxr,001,2020-11-19_22h13.49.049,test3,2020.2.5,MacIntel,60
,,,,z,1.274,0,283,283,283,1,paints/images/161.jpg,paints/images/28.jpg,284,xxr,001,2020-11-19_22h13.49.049,test3,2020.2.5,MacIntel,60
,,,,m,4.002,0,284,284,284,1,paints/images/298.jpg,paints/images/345.jpg,285,xxr,001,2020-11-19_22h13.49.049,test3,2020.2.5,MacIntel,60
,,,,z,1.093,0,285,285,285,1,paints/images/163.jpg,paints/images/205.jpg,286,xxr,001,2020-11-19_22h13.49.049,test3,2020.2.5,MacIntel,60
,,,,m,0.333,0,286,286,286,1,paints/images/121.jpg,paints/images/252.jpg,287,xxr,001,2020-11-19_22h13.49.049,test3,2020.2.5,MacIntel,60
,,,,z,0.385,0,287,287,287,1,paints/images/247.jpg,paints/images/95.jpg,288,xxr,001,2020-11-19_22h13.49.049,test3,2020.2.5,MacIntel,60
,,,,m,0.271,0,288,288,288,1,paints/images/321.jpg,paints/images/150.jpg,289,xxr,001,2020-11-19_22h13.49.049,test3,2020.2.5,MacIntel,60
,,,,z,0.267,0,289,289,289,1,paints/images/46.jpg,paints/images/226.jpg,290,xxr,001,2020-11-19_22h13.49.049,test3,2020.2.5,MacIntel,60
,,,,m,0.235,0,290,290,290,1,paints/images/154.jpg,paints/images/263.jpg,291,xxr,001,2020-11-19_22h13.49.049,test3,2020.2.5,MacIntel,60
,,,,z,0.243,0,291,291,291,1,paints/images/191.jpg,paints/images/158.jpg,292,xxr,001,2020-11-19_22h13.49.049,test3,2020.2.5,MacIntel,60
,,,,m,0.273,0,292,292,292,1,paints/images/49.jpg,paints/images/227.jpg,293,xxr,001,2020-11-19_22h13.49.049,test3,2020.2.5,MacIntel,60
,,,,z,0.273,0,293,293,293,1,paints/images/124.jpg,paints/images/89.jpg,294,xxr,001,2020-11-19_22h13.49.049,test3,2020.2.5,MacIntel,60
,,,,m,0.207,0,294,294,294,1,paints/images/390.jpg,paints/images/43.jpg,295,xxr,001,2020-11-19_22h13.49.049,test3,2020.2.5,MacIntel,60
,,,,z,0.208,0,295,295,295,1,paints/images/42.jpg,paints/images/268.jpg,296,xxr,001,2020-11-19_22h13.49.049,test3,2020.2.5,MacIntel,60
,,,,m,0.279,0,296,296,296,1,paints/images/113.jpg,paints/images/386.jpg,297,xxr,001,2020-11-19_22h13.49.049,test3,2020.2.5,MacIntel,60
,,,,z,0.246,0,297,297,297,1,paints/images/287.jpg,paints/images/307.jpg,298,xxr,001,2020-11-19_22h13.49.049,test3,2020.2.5,MacIntel,60
,,,,m,0.247,0,298,298,298,1,paints/images/134.jpg,paints/images/300.jpg,299,xxr,001,2020-11-19_22h13.49.049,test3,2020.2.5,MacIntel,60
,,,,z,0.259,0,299,299,299,1,paints/images/60.jpg,paints/images/206.jpg,300,xxr,001,2020-11-19_22h13.49.049,test3,2020.2.5,MacIntel,60
,,,,m,0.224,0,300,300,300,1,paints/images/384.jpg,paints/images/335.jpg,301,xxr,001,2020-11-19_22h13.49.049,test3,2020.2.5,MacIntel,60
,,,,z,0.15,0,301,301,301,1,paints/images/326.jpg,paints/images/139.jpg,302,xxr,001,2020-11-19_22h13.49.049,test3,2020.2.5,MacIntel,60
,,,,m,0.269,0,302,302,302,1,paints/images/166.jpg,paints/images/374.jpg,303,xxr,001,2020-11-19_22h13.49.049,test3,2020.2.5,MacIntel,60
,,,,z,0.228,0,303,303,303,1,paints/images/360.jpg,paints/images/10.jpg,304,xxr,001,2020-11-19_22h13.49.049,test3,2020.2.5,MacIntel,60
,,,,m,0.177,0,304,304,304,1,paints/images/158.jpg,paints/images/149.jpg,305,xxr,001,2020-11-19_22h13.49.049,test3,2020.2.5,MacIntel,60
,,,,z,0.333,0,305,305,305,1,paints/images/159.jpg,paints/images/362.jpg,306,xxr,001,2020-11-19_22h13.49.049,test3,2020.2.5,MacIntel,60
,,,,m,0.224,0,306,306,306,1,paints/images/214.jpg,paints/images/116.jpg,307,xxr,001,2020-11-19_22h13.49.049,test3,2020.2.5,MacIntel,60
,,,,z,0.136,0,307,307,307,1,paints/images/256.jpg,paints/images/323.jpg,308,xxr,001,2020-11-19_22h13.49.049,test3,2020.2.5,MacIntel,60
,,,,m,0.202,0,308,308,308,1,paints/images/36.jpg,paints/images/157.jpg,309,xxr,001,2020-11-19_22h13.49.049,test3,2020.2.5,MacIntel,60
,,,,z,0.166,0,309,309,309,1,paints/images/101.jpg,paints/images/126.jpg,310,xxr,001,2020-11-19_22h13.49.049,test3,2020.2.5,MacIntel,60
,,,,m,0.22,0,310,310,310,1,paints/images/265.jpg,paints/images/35.jpg,311,xxr,001,2020-11-19_22h13.49.049,test3,2020.2.5,MacIntel,60
,,,,z,0.17,0,311,311,311,1,paints/images/392.jpg,paints/images/233.jpg,312,xxr,001,2020-11-19_22h13.49.049,test3,2020.2.5,MacIntel,60
,,,,m,0.181,0,312,312,312,1,paints/images/251.jpg,paints/images/12.jpg,313,xxr,001,2020-11-19_22h13.49.049,test3,2020.2.5,MacIntel,60
,,,,z,0.18,0,313,313,313,1,paints/images/12.jpg,paints/images/144.jpg,314,xxr,001,2020-11-19_22h13.49.049,test3,2020.2.5,MacIntel,60
,,,,m,0.186,0,314,314,314,1,paints/images/133.jpg,paints/images/331.jpg,315,xxr,001,2020-11-19_22h13.49.049,test3,2020.2.5,MacIntel,60
,,,,z,0.323,0,315,315,315,1,paints/images/383.jpg,paints/images/99.jpg,316,xxr,001,2020-11-19_22h13.49.049,test3,2020.2.5,MacIntel,60
,,,,m,0.012,0,316,316,316,1,paints/images/211.jpg,paints/images/303.jpg,317,xxr,001,2020-11-19_22h13.49.049,test3,2020.2.5,MacIntel,60
,,,,z,0.491,0,317,317,317,1,paints/images/201.jpg,paints/images/238.jpg,318,xxr,001,2020-11-19_22h13.49.049,test3,2020.2.5,MacIntel,60
,,,,m,0.216,0,318,318,318,1,paints/images/205.jpg,paints/images/102.jpg,319,xxr,001,2020-11-19_22h13.49.049,test3,2020.2.5,MacIntel,60
,,,,z,0.329,0,319,319,319,1,paints/images/270.jpg,paints/images/322.jpg,320,xxr,001,2020-11-19_22h13.49.049,test3,2020.2.5,MacIntel,60
,,,,m,0.111,0,320,320,320,1,paints/images/341.jpg,paints/images/248.jpg,321,xxr,001,2020-11-19_22h13.49.049,test3,2020.2.5,MacIntel,60
,,,,z,0.139,0,321,321,321,1,paints/images/141.jpg,paints/images/94.jpg,322,xxr,001,2020-11-19_22h13.49.049,test3,2020.2.5,MacIntel,60
,,,,m,0.071,0,322,322,322,1,paints/images/83.jpg,paints/images/327.jpg,323,xxr,001,2020-11-19_22h13.49.049,test3,2020.2.5,MacIntel,60
,,,,z,0.181,0,323,323,323,1,paints/images/327.jpg,paints/images/110.jpg,324,xxr,001,2020-11-19_22h13.49.049,test3,2020.2.5,MacIntel,60
,,,,m,0.075,0,324,324,324,1,paints/images/157.jpg,paints/images/79.jpg,325,xxr,001,2020-11-19_22h13.49.049,test3,2020.2.5,MacIntel,60
,,,,z,0.189,0,325,325,325,1,paints/images/193.jpg,paints/images/74.jpg,326,xxr,001,2020-11-19_22h13.49.049,test3,2020.2.5,MacIntel,60
,,,,m,0.079,0,326,326,326,1,paints/images/140.jpg,paints/images/292.jpg,327,xxr,001,2020-11-19_22h13.49.049,test3,2020.2.5,MacIntel,60
,,,,z,0.178,0,327,327,327,1,paints/images/107.jpg,paints/images/92.jpg,328,xxr,001,2020-11-19_22h13.49.049,test3,2020.2.5,MacIntel,60
,,,,m,0.119,0,328,328,328,1,paints/images/7.jpg,paints/images/56.jpg,329,xxr,001,2020-11-19_22h13.49.049,test3,2020.2.5,MacIntel,60
,,,,z,0.139,0,329,329,329,1,paints/images/177.jpg,paints/images/141.jpg,330,xxr,001,2020-11-19_22h13.49.049,test3,2020.2.5,MacIntel,60
,,,,m,0.107,0,330,330,330,1,paints/images/244.jpg,paints/images/250.jpg,331,xxr,001,2020-11-19_22h13.49.049,test3,2020.2.5,MacIntel,60
,,,,z,0.128,0,331,331,331,1,paints/images/253.jpg,paints/images/8.jpg,332,xxr,001,2020-11-19_22h13.49.049,test3,2020.2.5,MacIntel,60
,,,,m,0.064,0,332,332,332,1,paints/images/136.jpg,paints/images/108.jpg,333,xxr,001,2020-11-19_22h13.49.049,test3,2020.2.5,MacIntel,60
,,,,z,0.189,0,333,333,333,1,paints/images/165.jpg,paints/images/147.jpg,334,xxr,001,2020-11-19_22h13.49.049,test3,2020.2.5,MacIntel,60
,,,,m,0.022,0,334,334,334,1,paints/images/39.jpg,paints/images/387.jpg,335,xxr,001,2020-11-19_22h13.49.049,test3,2020.2.5,MacIntel,60
,,,,z,0.212,0,335,335,335,1,paints/images/271.jpg,paints/images/125.jpg,336,xxr,001,2020-11-19_22h13.49.049,test3,2020.2.5,MacIntel,60
,,,,m,0.032,0,336,336,336,1,paints/images/90.jpg,paints/images/130.jpg,337,xxr,001,2020-11-19_22h13.49.049,test3,2020.2.5,MacIntel,60
,,,,z,0.212,0,337,337,337,1,paints/images/362.jpg,paints/images/60.jpg,338,xxr,001,2020-11-19_22h13.49.049,test3,2020.2.5,MacIntel,60
,,,,m,0.004,0,338,338,338,1,paints/images/218.jpg,paints/images/153.jpg,339,xxr,001,2020-11-19_22h13.49.049,test3,2020.2.5,MacIntel,60
,,,,m,0.143,0,339,339,339,1,paints/images/18.jpg,paints/images/324.jpg,340,xxr,001,2020-11-19_22h13.49.049,test3,2020.2.5,MacIntel,60
,,,,z,0.093,0,340,340,340,1,paints/images/29.jpg,paints/images/120.jpg,341,xxr,001,2020-11-19_22h13.49.049,test3,2020.2.5,MacIntel,60
,,,,m,0.062,0,341,341,341,1,paints/images/155.jpg,paints/images/142.jpg,342,xxr,001,2020-11-19_22h13.49.049,test3,2020.2.5,MacIntel,60
,,,,z,0.179,0,342,342,342,1,paints/images/148.jpg,paints/images/396.jpg,343,xxr,001,2020-11-19_22h13.49.049,test3,2020.2.5,MacIntel,60
,,,,m,0.121,0,343,343,343,1,paints/images/373.jpg,paints/images/218.jpg,344,xxr,001,2020-11-19_22h13.49.049,test3,2020.2.5,MacIntel,60
,,,,z,0.44,0,344,344,344,1,paints/images/231.jpg,paints/images/73.jpg,345,xxr,001,2020-11-19_22h13.49.049,test3,2020.2.5,MacIntel,60
,,,,m,0.149,0,345,345,345,1,paints/images/240.jpg,paints/images/356.jpg,346,xxr,001,2020-11-19_22h13.49.049,test3,2020.2.5,MacIntel,60
,,,,z,0.123,0,346,346,346,1,paints/images/332.jpg,paints/images/347.jpg,347,xxr,001,2020-11-19_22h13.49.049,test3,2020.2.5,MacIntel,60
,,,,m,0.14,0,347,347,347,1,paints/images/254.jpg,paints/images/310.jpg,348,xxr,001,2020-11-19_22h13.49.049,test3,2020.2.5,MacIntel,60
,,,,z,0.102,0,348,348,348,1,paints/images/405.jpg,paints/images/385.jpg,349,xxr,001,2020-11-19_22h13.49.049,test3,2020.2.5,MacIntel,60
,,,,m,0.108,0,349,349,349,1,paints/images/345.jpg,paints/images/274.jpg,350,xxr,001,2020-11-19_22h13.49.049,test3,2020.2.5,MacIntel,60
,,,,z,0.121,0,350,350,350,1,paints/images/363.jpg,paints/images/18.jpg,351,xxr,001,2020-11-19_22h13.49.049,test3,2020.2.5,MacIntel,60
,,,,m,0.13,0,351,351,351,1,paints/images/37.jpg,paints/images/53.jpg,352,xxr,001,2020-11-19_22h13.49.049,test3,2020.2.5,MacIntel,60
,,,,m,0.186,0,352,352,352,1,paints/images/315.jpg,paints/images/319.jpg,353,xxr,001,2020-11-19_22h13.49.049,test3,2020.2.5,MacIntel,60
,,,,m,0.155,0,353,353,353,1,paints/images/74.jpg,paints/images/403.jpg,354,xxr,001,2020-11-19_22h13.49.049,test3,2020.2.5,MacIntel,60
,,,,m,0.134,0,354,354,354,1,paints/images/156.jpg,paints/images/246.jpg,355,xxr,001,2020-11-19_22h13.49.049,test3,2020.2.5,MacIntel,60
,,,,z,0.192,0,355,355,355,1,paints/images/285.jpg,paints/images/270.jpg,356,xxr,001,2020-11-19_22h13.49.049,test3,2020.2.5,MacIntel,60
,,,,m,0.158,0,356,356,356,1,paints/images/17.jpg,paints/images/398.jpg,357,xxr,001,2020-11-19_22h13.49.049,test3,2020.2.5,MacIntel,60
,,,,z,0.119,0,357,357,357,1,paints/images/335.jpg,paints/images/27.jpg,358,xxr,001,2020-11-19_22h13.49.049,test3,2020.2.5,MacIntel,60
,,,,m,0.114,0,358,358,358,1,paints/images/350.jpg,paints/images/156.jpg,359,xxr,001,2020-11-19_22h13.49.049,test3,2020.2.5,MacIntel,60
,,,,z,0.078,0,359,359,359,1,paints/images/31.jpg,paints/images/231.jpg,360,xxr,001,2020-11-19_22h13.49.049,test3,2020.2.5,MacIntel,60
,,,,m,0.09,0,360,360,360,1,paints/images/114.jpg,paints/images/333.jpg,361,xxr,001,2020-11-19_22h13.49.049,test3,2020.2.5,MacIntel,60
,,,,m,0.193,0,361,361,361,1,paints/images/79.jpg,paints/images/408.jpg,362,xxr,001,2020-11-19_22h13.49.049,test3,2020.2.5,MacIntel,60
,,,,m,0.15,0,362,362,362,1,paints/images/338.jpg,paints/images/279.jpg,363,xxr,001,2020-11-19_22h13.49.049,test3,2020.2.5,MacIntel,60
,,,,z,0.137,0,363,363,363,1,paints/images/354.jpg,paints/images/304.jpg,364,xxr,001,2020-11-19_22h13.49.049,test3,2020.2.5,MacIntel,60
,,,,m,0.123,0,364,364,364,1,paints/images/128.jpg,paints/images/276.jpg,365,xxr,001,2020-11-19_22h13.49.049,test3,2020.2.5,MacIntel,60
,,,,z,0.114,0,365,365,365,1,paints/images/35.jpg,paints/images/188.jpg,366,xxr,001,2020-11-19_22h13.49.049,test3,2020.2.5,MacIntel,60
,,,,m,0.081,0,366,366,366,1,paints/images/16.jpg,paints/images/29.jpg,367,xxr,001,2020-11-19_22h13.49.049,test3,2020.2.5,MacIntel,60
,,,,z,0.091,0,367,367,367,1,paints/images/119.jpg,paints/images/251.jpg,368,xxr,001,2020-11-19_22h13.49.049,test3,2020.2.5,MacIntel,60
,,,,m,0.121,0,368,368,368,1,paints/images/207.jpg,paints/images/65.jpg,369,xxr,001,2020-11-19_22h13.49.049,test3,2020.2.5,MacIntel,60
,,,,m,0.206,0,369,369,369,1,paints/images/173.jpg,paints/images/373.jpg,370,xxr,001,2020-11-19_22h13.49.049,test3,2020.2.5,MacIntel,60
,,,,m,0.146,0,370,370,370,1,paints/images/135.jpg,paints/images/196.jpg,371,xxr,001,2020-11-19_22h13.49.049,test3,2020.2.5,MacIntel,60
,,,,z,0.04,0,371,371,371,1,paints/images/55.jpg,paints/images/316.jpg,372,xxr,001,2020-11-19_22h13.49.049,test3,2020.2.5,MacIntel,60
,,,,m,0.154,0,372,372,372,1,paints/images/343.jpg,paints/images/383.jpg,373,xxr,001,2020-11-19_22h13.49.049,test3,2020.2.5,MacIntel,60
,,,,z,0.085,0,373,373,373,1,paints/images/203.jpg,paints/images/186.jpg,374,xxr,001,2020-11-19_22h13.49.049,test3,2020.2.5,MacIntel,60
,,,,m,0.083,0,374,374,374,1,paints/images/123.jpg,paints/images/128.jpg,375,xxr,001,2020-11-19_22h13.49.049,test3,2020.2.5,MacIntel,60
,,,,z,0.167,0,375,375,375,1,paints/images/391.jpg,paints/images/208.jpg,376,xxr,001,2020-11-19_22h13.49.049,test3,2020.2.5,MacIntel,60
,,,,m,0.115,0,376,376,376,1,paints/images/105.jpg,paints/images/313.jpg,377,xxr,001,2020-11-19_22h13.49.049,test3,2020.2.5,MacIntel,60
,,,,z,0.121,0,377,377,377,1,paints/images/184.jpg,paints/images/69.jpg,378,xxr,001,2020-11-19_22h13.49.049,test3,2020.2.5,MacIntel,60
,,,,m,0.146,0,378,378,378,1,paints/images/63.jpg,paints/images/191.jpg,379,xxr,001,2020-11-19_22h13.49.049,test3,2020.2.5,MacIntel,60
,,,,z,0.1,0,379,379,379,1,paints/images/85.jpg,paints/images/390.jpg,380,xxr,001,2020-11-19_22h13.49.049,test3,2020.2.5,MacIntel,60
,,,,z,0.252,0,380,380,380,1,paints/images/179.jpg,paints/images/177.jpg,381,xxr,001,2020-11-19_22h13.49.049,test3,2020.2.5,MacIntel,60
,,,,z,0.486,0,381,381,381,1,paints/images/320.jpg,paints/images/171.jpg,382,xxr,001,2020-11-19_22h13.49.049,test3,2020.2.5,MacIntel,60
,,,,z,0.185,0,382,382,382,1,paints/images/77.jpg,paints/images/406.jpg,383,xxr,001,2020-11-19_22h13.49.049,test3,2020.2.5,MacIntel,60
,,,,z,0.199,0,383,383,383,1,paints/images/66.jpg,paints/images/255.jpg,384,xxr,001,2020-11-19_22h13.49.049,test3,2020.2.5,MacIntel,60
,,,,m,0.122,0,384,384,384,1,paints/images/308.jpg,paints/images/41.jpg,385,xxr,001,2020-11-19_22h13.49.049,test3,2020.2.5,MacIntel,60
,,,,z,0.12,0,385,385,385,1,paints/images/260.jpg,paints/images/297.jpg,386,xxr,001,2020-11-19_22h13.49.049,test3,2020.2.5,MacIntel,60
,,,,m,0.073,0,386,386,386,1,paints/images/126.jpg,paints/images/273.jpg,387,xxr,001,2020-11-19_22h13.49.049,test3,2020.2.5,MacIntel,60
,,,,z,0.11,0,387,387,387,1,paints/images/68.jpg,paints/images/189.jpg,388,xxr,001,2020-11-19_22h13.49.049,test3,2020.2.5,MacIntel,60
,,,,m,0.044,0,388,388,388,1,paints/images/144.jpg,paints/images/280.jpg,389,xxr,001,2020-11-19_22h13.49.049,test3,2020.2.5,MacIntel,60
,,,,m,0.161,0,389,389,389,1,paints/images/24.jpg,paints/images/389.jpg,390,xxr,001,2020-11-19_22h13.49.049,test3,2020.2.5,MacIntel,60
,,,,z,0.05,0,390,390,390,1,paints/images/222.jpg,paints/images/7.jpg,391,xxr,001,2020-11-19_22h13.49.049,test3,2020.2.5,MacIntel,60
,,,,m,0.137,0,391,391,391,1,paints/images/282.jpg,paints/images/278.jpg,392,xxr,001,2020-11-19_22h13.49.049,test3,2020.2.5,MacIntel,60
,,,,z,0.138,0,392,392,392,1,paints/images/190.jpg,paints/images/61.jpg,393,xxr,001,2020-11-19_22h13.49.049,test3,2020.2.5,MacIntel,60
,,,,m,0.102,0,393,393,393,1,paints/images/212.jpg,paints/images/402.jpg,394,xxr,001,2020-11-19_22h13.49.049,test3,2020.2.5,MacIntel,60
,,,,m,0.236,0,394,394,394,1,paints/images/80.jpg,paints/images/410.jpg,395,xxr,001,2020-11-19_22h13.49.049,test3,2020.2.5,MacIntel,60
,,,,m,0.154,0,395,395,395,1,paints/images/252.jpg,paints/images/382.jpg,396,xxr,001,2020-11-19_22h13.49.049,test3,2020.2.5,MacIntel,60
,,,,m,0.17,0,396,396,396,1,paints/images/71.jpg,paints/images/337.jpg,397,xxr,001,2020-11-19_22h13.49.049,test3,2020.2.5,MacIntel,60
,,,,z,0.088,0,397,397,397,1,paints/images/264.jpg,paints/images/118.jpg,398,xxr,001,2020-11-19_22h13.49.049,test3,2020.2.5,MacIntel,60
,,,,m,0.13,0,398,398,398,1,paints/images/180.jpg,paints/images/357.jpg,399,xxr,001,2020-11-19_22h13.49.049,test3,2020.2.5,MacIntel,60
,,,,z,0.046,0,399,399,399,1,paints/images/357.jpg,paints/images/15.jpg,400,xxr,001,2020-11-19_22h13.49.049,test3,2020.2.5,MacIntel,60
,,,,m,0.11,0,400,400,400,1,paints/images/401.jpg,paints/images/220.jpg,401,xxr,001,2020-11-19_22h13.49.049,test3,2020.2.5,MacIntel,60
,,,,z,0.089,0,401,401,401,1,paints/images/95.jpg,paints/images/135.jpg,402,xxr,001,2020-11-19_22h13.49.049,test3,2020.2.5,MacIntel,60
,,,,m,0.074,0,402,402,402,1,paints/images/152.jpg,paints/images/234.jpg,403,xxr,001,2020-11-19_22h13.49.049,test3,2020.2.5,MacIntel,60
,,,,z,0.112,0,403,403,403,1,paints/images/30.jpg,paints/images/88.jpg,404,xxr,001,2020-11-19_22h13.49.049,test3,2020.2.5,MacIntel,60
,,,,m,0.099,0,404,404,404,1,paints/images/194.jpg,paints/images/392.jpg,405,xxr,001,2020-11-19_22h13.49.049,test3,2020.2.5,MacIntel,60
,,,,z,0.11,0,405,405,405,1,paints/images/351.jpg,paints/images/103.jpg,406,xxr,001,2020-11-19_22h13.49.049,test3,2020.2.5,MacIntel,60
,,,,m,0.099,0,406,406,406,1,paints/images/236.jpg,paints/images/369.jpg,407,xxr,001,2020-11-19_22h13.49.049,test3,2020.2.5,MacIntel,60
,,,,z,0.085,0,407,407,407,1,paints/images/219.jpg,paints/images/136.jpg,408,xxr,001,2020-11-19_22h13.49.049,test3,2020.2.5,MacIntel,60
,,,,m,0.122,0,408,408,408,1,paints/images/306.jpg,paints/images/239.jpg,409,xxr,001,2020-11-19_22h13.49.049,test3,2020.2.5,MacIntel,60
,,,,z,0.053,0,409,409,409,1,paints/images/108.jpg,paints/images/259.jpg,410,xxr,001,2020-11-19_22h13.49.049,test3,2020.2.5,MacIntel,60
,,,,m,0.132,0,410,410,410,1,paints/images/210.jpg,paints/images/30.jpg,411,xxr,001,2020-11-19_22h13.49.049,test3,2020.2.5,MacIntel,60
