key_resp.keys,key_resp.rt,key_resp_3.keys,key_resp_3.rt,key_resp_2.keys,key_resp_2.rt,trials.thisRepN,trials.thisTrialN,trials.thisN,trials.thisIndex,trials.ran,image_left,image_right,trial_num,participant,session,date,expName,psychopyVersion,OS,frameRate
space,4.118,space,1.131,m,7.245,0,0,0,0,1,paints/images/344.jpg,paints/images/121.jpg,1,Yang,001,2020-11-19_13h55.30.915,test3,2020.2.5,MacIntel,60
,,,,z,2.049,0,1,1,1,1,paints/images/369.jpg,paints/images/367.jpg,2,Yang,001,2020-11-19_13h55.30.915,test3,2020.2.5,MacIntel,60
,,,,z,3.455,0,2,2,2,1,paints/images/385.jpg,paints/images/253.jpg,3,Yang,001,2020-11-19_13h55.30.915,test3,2020.2.5,MacIntel,60
,,,,m,12.181,0,3,3,3,1,paints/images/230.jpg,paints/images/124.jpg,4,Yang,001,2020-11-19_13h55.30.915,test3,2020.2.5,MacIntel,60
,,,,z,2.185,0,4,4,4,1,paints/images/284.jpg,paints/images/172.jpg,5,Yang,001,2020-11-19_13h55.30.915,test3,2020.2.5,MacIntel,60
,,,,m,2.322,0,5,5,5,1,paints/images/325.jpg,paints/images/5.jpg,6,Yang,001,2020-11-19_13h55.30.915,test3,2020.2.5,MacIntel,60
,,,,z,2.672,0,6,6,6,1,paints/images/2.jpg,paints/images/107.jpg,7,Yang,001,2020-11-19_13h55.30.915,test3,2020.2.5,MacIntel,60
,,,,z,2.085,0,7,7,7,1,paints/images/330.jpg,paints/images/93.jpg,8,Yang,001,2020-11-19_13h55.30.915,test3,2020.2.5,MacIntel,60
,,,,m,3.417,0,8,8,8,1,paints/images/197.jpg,paints/images/20.jpg,9,Yang,001,2020-11-19_13h55.30.915,test3,2020.2.5,MacIntel,60
,,,,m,2.433,0,9,9,9,1,paints/images/233.jpg,paints/images/346.jpg,10,Yang,001,2020-11-19_13h55.30.915,test3,2020.2.5,MacIntel,60
,,,,z,7.316,0,10,10,10,1,paints/images/289.jpg,paints/images/317.jpg,11,Yang,001,2020-11-19_13h55.30.915,test3,2020.2.5,MacIntel,60
,,,,z,3.601,0,11,11,11,1,paints/images/189.jpg,paints/images/230.jpg,12,Yang,001,2020-11-19_13h55.30.915,test3,2020.2.5,MacIntel,60
,,,,m,3.398,0,12,12,12,1,paints/images/28.jpg,paints/images/401.jpg,13,Yang,001,2020-11-19_13h55.30.915,test3,2020.2.5,MacIntel,60
,,,,m,1.688,0,13,13,13,1,paints/images/183.jpg,paints/images/198.jpg,14,Yang,001,2020-11-19_13h55.30.915,test3,2020.2.5,MacIntel,60
,,,,m,6.131,0,14,14,14,1,paints/images/223.jpg,paints/images/249.jpg,15,Yang,001,2020-11-19_13h55.30.915,test3,2020.2.5,MacIntel,60
,,,,m,10.365,0,15,15,15,1,paints/images/331.jpg,paints/images/168.jpg,16,Yang,001,2020-11-19_13h55.30.915,test3,2020.2.5,MacIntel,60
,,,,m,5.784,0,16,16,16,1,paints/images/129.jpg,paints/images/21.jpg,17,Yang,001,2020-11-19_13h55.30.915,test3,2020.2.5,MacIntel,60
,,,,m,1.702,0,17,17,17,1,paints/images/250.jpg,paints/images/290.jpg,18,Yang,001,2020-11-19_13h55.30.915,test3,2020.2.5,MacIntel,60
,,,,m,1.434,0,18,18,18,1,paints/images/342.jpg,paints/images/371.jpg,19,Yang,001,2020-11-19_13h55.30.915,test3,2020.2.5,MacIntel,60
,,,,m,1.197,0,19,19,19,1,paints/images/312.jpg,paints/images/349.jpg,20,Yang,001,2020-11-19_13h55.30.915,test3,2020.2.5,MacIntel,60
,,,,m,1.869,0,20,20,20,1,paints/images/44.jpg,paints/images/23.jpg,21,Yang,001,2020-11-19_13h55.30.915,test3,2020.2.5,MacIntel,60
,,,,m,1.449,0,21,21,21,1,paints/images/209.jpg,paints/images/236.jpg,22,Yang,001,2020-11-19_13h55.30.915,test3,2020.2.5,MacIntel,60
,,,,m,2.401,0,22,22,22,1,paints/images/314.jpg,paints/images/326.jpg,23,Yang,001,2020-11-19_13h55.30.915,test3,2020.2.5,MacIntel,60
,,,,z,2.118,0,23,23,23,1,paints/images/374.jpg,paints/images/397.jpg,24,Yang,001,2020-11-19_13h55.30.915,test3,2020.2.5,MacIntel,60
,,,,m,1.57,0,24,24,24,1,paints/images/355.jpg,paints/images/400.jpg,25,Yang,001,2020-11-19_13h55.30.915,test3,2020.2.5,MacIntel,60
,,,,m,4.83,0,25,25,25,1,paints/images/346.jpg,paints/images/223.jpg,26,Yang,001,2020-11-19_13h55.30.915,test3,2020.2.5,MacIntel,60
,,,,z,1.283,0,26,26,26,1,paints/images/292.jpg,paints/images/122.jpg,27,Yang,001,2020-11-19_13h55.30.915,test3,2020.2.5,MacIntel,60
,,,,m,4.849,0,27,27,27,1,paints/images/81.jpg,paints/images/294.jpg,28,Yang,001,2020-11-19_13h55.30.915,test3,2020.2.5,MacIntel,60
,,,,z,2.351,0,28,28,28,1,paints/images/359.jpg,paints/images/370.jpg,29,Yang,001,2020-11-19_13h55.30.915,test3,2020.2.5,MacIntel,60
,,,,z,1.786,0,29,29,29,1,paints/images/88.jpg,paints/images/119.jpg,30,Yang,001,2020-11-19_13h55.30.915,test3,2020.2.5,MacIntel,60
,,,,m,3.282,0,30,30,30,1,paints/images/178.jpg,paints/images/47.jpg,31,Yang,001,2020-11-19_13h55.30.915,test3,2020.2.5,MacIntel,60
,,,,m,1.52,0,31,31,31,1,paints/images/139.jpg,paints/images/377.jpg,32,Yang,001,2020-11-19_13h55.30.915,test3,2020.2.5,MacIntel,60
,,,,m,7.133,0,32,32,32,1,paints/images/142.jpg,paints/images/379.jpg,33,Yang,001,2020-11-19_13h55.30.915,test3,2020.2.5,MacIntel,60
,,,,m,2.385,0,33,33,33,1,paints/images/366.jpg,paints/images/22.jpg,34,Yang,001,2020-11-19_13h55.30.915,test3,2020.2.5,MacIntel,60
,,,,z,1.634,0,34,34,34,1,paints/images/277.jpg,paints/images/365.jpg,35,Yang,001,2020-11-19_13h55.30.915,test3,2020.2.5,MacIntel,60
,,,,m,3.286,0,35,35,35,1,paints/images/406.jpg,paints/images/388.jpg,36,Yang,001,2020-11-19_13h55.30.915,test3,2020.2.5,MacIntel,60
,,,,z,4.201,0,36,36,36,1,paints/images/389.jpg,paints/images/104.jpg,37,Yang,001,2020-11-19_13h55.30.915,test3,2020.2.5,MacIntel,60
,,,,m,4.854,0,37,37,37,1,paints/images/20.jpg,paints/images/84.jpg,38,Yang,001,2020-11-19_13h55.30.915,test3,2020.2.5,MacIntel,60
,,,,z,3.27,0,38,38,38,1,paints/images/169.jpg,paints/images/163.jpg,39,Yang,001,2020-11-19_13h55.30.915,test3,2020.2.5,MacIntel,60
,,,,z,3.455,0,39,39,39,1,paints/images/58.jpg,paints/images/359.jpg,40,Yang,001,2020-11-19_13h55.30.915,test3,2020.2.5,MacIntel,60
,,,,z,2.216,0,40,40,40,1,paints/images/376.jpg,paints/images/256.jpg,41,Yang,001,2020-11-19_13h55.30.915,test3,2020.2.5,MacIntel,60
,,,,z,1.137,0,41,41,41,1,paints/images/33.jpg,paints/images/261.jpg,42,Yang,001,2020-11-19_13h55.30.915,test3,2020.2.5,MacIntel,60
,,,,z,2.484,0,42,42,42,1,paints/images/294.jpg,paints/images/96.jpg,43,Yang,001,2020-11-19_13h55.30.915,test3,2020.2.5,MacIntel,60
,,,,m,2.967,0,43,43,43,1,paints/images/269.jpg,paints/images/293.jpg,44,Yang,001,2020-11-19_13h55.30.915,test3,2020.2.5,MacIntel,60
,,,,m,41.332,0,44,44,44,1,paints/images/199.jpg,paints/images/284.jpg,45,Yang,001,2020-11-19_13h55.30.915,test3,2020.2.5,MacIntel,60
,,,,z,2.552,0,45,45,45,1,paints/images/255.jpg,paints/images/281.jpg,46,Yang,001,2020-11-19_13h55.30.915,test3,2020.2.5,MacIntel,60
,,,,z,1.382,0,46,46,46,1,paints/images/382.jpg,paints/images/4.jpg,47,Yang,001,2020-11-19_13h55.30.915,test3,2020.2.5,MacIntel,60
,,,,m,1.032,0,47,47,47,1,paints/images/111.jpg,paints/images/83.jpg,48,Yang,001,2020-11-19_13h55.30.915,test3,2020.2.5,MacIntel,60
,,,,m,1.398,0,48,48,48,1,paints/images/239.jpg,paints/images/151.jpg,49,Yang,001,2020-11-19_13h55.30.915,test3,2020.2.5,MacIntel,60
,,,,z,1.238,0,49,49,49,1,paints/images/84.jpg,paints/images/341.jpg,50,Yang,001,2020-11-19_13h55.30.915,test3,2020.2.5,MacIntel,60
,,,,z,1.341,0,50,50,50,1,paints/images/317.jpg,paints/images/159.jpg,51,Yang,001,2020-11-19_13h55.30.915,test3,2020.2.5,MacIntel,60
,,,,m,0.916,0,51,51,51,1,paints/images/153.jpg,paints/images/212.jpg,52,Yang,001,2020-11-19_13h55.30.915,test3,2020.2.5,MacIntel,60
,,,,m,3.388,0,52,52,52,1,paints/images/5.jpg,paints/images/361.jpg,53,Yang,001,2020-11-19_13h55.30.915,test3,2020.2.5,MacIntel,60
,,,,z,1.055,0,53,53,53,1,paints/images/319.jpg,paints/images/178.jpg,54,Yang,001,2020-11-19_13h55.30.915,test3,2020.2.5,MacIntel,60
,,,,m,1.205,0,54,54,54,1,paints/images/118.jpg,paints/images/275.jpg,55,Yang,001,2020-11-19_13h55.30.915,test3,2020.2.5,MacIntel,60
,,,,m,4.55,0,55,55,55,1,paints/images/213.jpg,paints/images/312.jpg,56,Yang,001,2020-11-19_13h55.30.915,test3,2020.2.5,MacIntel,60
,,,,m,1.371,0,56,56,56,1,paints/images/4.jpg,paints/images/131.jpg,57,Yang,001,2020-11-19_13h55.30.915,test3,2020.2.5,MacIntel,60
,,,,z,1.549,0,57,57,57,1,paints/images/206.jpg,paints/images/391.jpg,58,Yang,001,2020-11-19_13h55.30.915,test3,2020.2.5,MacIntel,60
,,,,z,1.25,0,58,58,58,1,paints/images/349.jpg,paints/images/240.jpg,59,Yang,001,2020-11-19_13h55.30.915,test3,2020.2.5,MacIntel,60
,,,,m,1.669,0,59,59,59,1,paints/images/174.jpg,paints/images/197.jpg,60,Yang,001,2020-11-19_13h55.30.915,test3,2020.2.5,MacIntel,60
,,,,m,1.139,0,60,60,60,1,paints/images/93.jpg,paints/images/330.jpg,61,Yang,001,2020-11-19_13h55.30.915,test3,2020.2.5,MacIntel,60
,,,,m,2.237,0,61,61,61,1,paints/images/262.jpg,paints/images/225.jpg,62,Yang,001,2020-11-19_13h55.30.915,test3,2020.2.5,MacIntel,60
,,,,z,2.505,0,62,62,62,1,paints/images/322.jpg,paints/images/267.jpg,63,Yang,001,2020-11-19_13h55.30.915,test3,2020.2.5,MacIntel,60
,,,,m,1.134,0,63,63,63,1,paints/images/104.jpg,paints/images/140.jpg,64,Yang,001,2020-11-19_13h55.30.915,test3,2020.2.5,MacIntel,60
,,,,z,0.794,0,64,64,64,1,paints/images/400.jpg,paints/images/355.jpg,65,Yang,001,2020-11-19_13h55.30.915,test3,2020.2.5,MacIntel,60
,,,,m,354.791,0,65,65,65,1,paints/images/89.jpg,paints/images/380.jpg,66,Yang,001,2020-11-19_13h55.30.915,test3,2020.2.5,MacIntel,60
,,,,m,3.156,0,66,66,66,1,paints/images/181.jpg,paints/images/195.jpg,67,Yang,001,2020-11-19_13h55.30.915,test3,2020.2.5,MacIntel,60
,,,,z,1.8,0,67,67,67,1,paints/images/130.jpg,paints/images/155.jpg,68,Yang,001,2020-11-19_13h55.30.915,test3,2020.2.5,MacIntel,60
,,,,m,0.932,0,68,68,68,1,paints/images/15.jpg,paints/images/55.jpg,69,Yang,001,2020-11-19_13h55.30.915,test3,2020.2.5,MacIntel,60
,,,,z,1.133,0,69,69,69,1,paints/images/393.jpg,paints/images/34.jpg,70,Yang,001,2020-11-19_13h55.30.915,test3,2020.2.5,MacIntel,60
,,,,m,1.537,0,70,70,70,1,paints/images/192.jpg,paints/images/351.jpg,71,Yang,001,2020-11-19_13h55.30.915,test3,2020.2.5,MacIntel,60
,,,,z,1.132,0,71,71,71,1,paints/images/57.jpg,paints/images/363.jpg,72,Yang,001,2020-11-19_13h55.30.915,test3,2020.2.5,MacIntel,60
,,,,m,0.938,0,72,72,72,1,paints/images/243.jpg,paints/images/295.jpg,73,Yang,001,2020-11-19_13h55.30.915,test3,2020.2.5,MacIntel,60
,,,,z,1.383,0,73,73,73,1,paints/images/196.jpg,paints/images/146.jpg,74,Yang,001,2020-11-19_13h55.30.915,test3,2020.2.5,MacIntel,60
,,,,m,1.483,0,74,74,74,1,paints/images/367.jpg,paints/images/332.jpg,75,Yang,001,2020-11-19_13h55.30.915,test3,2020.2.5,MacIntel,60
,,,,z,1.69,0,75,75,75,1,paints/images/249.jpg,paints/images/50.jpg,76,Yang,001,2020-11-19_13h55.30.915,test3,2020.2.5,MacIntel,60
,,,,m,1.252,0,76,76,76,1,paints/images/100.jpg,paints/images/91.jpg,77,Yang,001,2020-11-19_13h55.30.915,test3,2020.2.5,MacIntel,60
,,,,z,3.699,0,77,77,77,1,paints/images/301.jpg,paints/images/154.jpg,78,Yang,001,2020-11-19_13h55.30.915,test3,2020.2.5,MacIntel,60
,,,,z,1.989,0,78,78,78,1,paints/images/13.jpg,paints/images/308.jpg,79,Yang,001,2020-11-19_13h55.30.915,test3,2020.2.5,MacIntel,60
,,,,z,1,0,79,79,79,1,paints/images/11.jpg,paints/images/24.jpg,80,Yang,001,2020-11-19_13h55.30.915,test3,2020.2.5,MacIntel,60
,,,,z,0.881,0,80,80,80,1,paints/images/27.jpg,paints/images/114.jpg,81,Yang,001,2020-11-19_13h55.30.915,test3,2020.2.5,MacIntel,60
,,,,z,1.433,0,81,81,81,1,paints/images/334.jpg,paints/images/217.jpg,82,Yang,001,2020-11-19_13h55.30.915,test3,2020.2.5,MacIntel,60
,,,,m,1.331,0,82,82,82,1,paints/images/340.jpg,paints/images/320.jpg,83,Yang,001,2020-11-19_13h55.30.915,test3,2020.2.5,MacIntel,60
,,,,m,1.516,0,83,83,83,1,paints/images/204.jpg,paints/images/52.jpg,84,Yang,001,2020-11-19_13h55.30.915,test3,2020.2.5,MacIntel,60
,,,,z,0.819,0,84,84,84,1,paints/images/266.jpg,paints/images/179.jpg,85,Yang,001,2020-11-19_13h55.30.915,test3,2020.2.5,MacIntel,60
,,,,m,1.601,0,85,85,85,1,paints/images/309.jpg,paints/images/45.jpg,86,Yang,001,2020-11-19_13h55.30.915,test3,2020.2.5,MacIntel,60
,,,,z,1.238,0,86,86,86,1,paints/images/48.jpg,paints/images/352.jpg,87,Yang,001,2020-11-19_13h55.30.915,test3,2020.2.5,MacIntel,60
,,,,z,1.755,0,87,87,87,1,paints/images/238.jpg,paints/images/190.jpg,88,Yang,001,2020-11-19_13h55.30.915,test3,2020.2.5,MacIntel,60
,,,,z,1.437,0,88,88,88,1,paints/images/216.jpg,paints/images/207.jpg,89,Yang,001,2020-11-19_13h55.30.915,test3,2020.2.5,MacIntel,60
,,,,z,2.071,0,89,89,89,1,paints/images/228.jpg,paints/images/315.jpg,90,Yang,001,2020-11-19_13h55.30.915,test3,2020.2.5,MacIntel,60
,,,,z,4.422,0,90,90,90,1,paints/images/368.jpg,paints/images/221.jpg,91,Yang,001,2020-11-19_13h55.30.915,test3,2020.2.5,MacIntel,60
,,,,z,1.086,0,91,91,91,1,paints/images/402.jpg,paints/images/257.jpg,92,Yang,001,2020-11-19_13h55.30.915,test3,2020.2.5,MacIntel,60
,,,,z,1.484,0,92,92,92,1,paints/images/248.jpg,paints/images/296.jpg,93,Yang,001,2020-11-19_13h55.30.915,test3,2020.2.5,MacIntel,60
,,,,z,1.608,0,93,93,93,1,paints/images/234.jpg,paints/images/174.jpg,94,Yang,001,2020-11-19_13h55.30.915,test3,2020.2.5,MacIntel,60
,,,,m,2.272,0,94,94,94,1,paints/images/149.jpg,paints/images/204.jpg,95,Yang,001,2020-11-19_13h55.30.915,test3,2020.2.5,MacIntel,60
,,,,z,1.248,0,95,95,95,1,paints/images/56.jpg,paints/images/117.jpg,96,Yang,001,2020-11-19_13h55.30.915,test3,2020.2.5,MacIntel,60
,,,,m,1.15,0,96,96,96,1,paints/images/146.jpg,paints/images/287.jpg,97,Yang,001,2020-11-19_13h55.30.915,test3,2020.2.5,MacIntel,60
,,,,z,0.807,0,97,97,97,1,paints/images/221.jpg,paints/images/62.jpg,98,Yang,001,2020-11-19_13h55.30.915,test3,2020.2.5,MacIntel,60
,,,,m,0.967,0,98,98,98,1,paints/images/110.jpg,paints/images/321.jpg,99,Yang,001,2020-11-19_13h55.30.915,test3,2020.2.5,MacIntel,60
,,,,z,1.983,0,99,99,99,1,paints/images/67.jpg,paints/images/384.jpg,100,Yang,001,2020-11-19_13h55.30.915,test3,2020.2.5,MacIntel,60
,,,,m,1.489,0,100,100,100,1,paints/images/356.jpg,paints/images/137.jpg,101,Yang,001,2020-11-19_13h55.30.915,test3,2020.2.5,MacIntel,60
,,,,m,1.227,0,101,101,101,1,paints/images/274.jpg,paints/images/232.jpg,102,Yang,001,2020-11-19_13h55.30.915,test3,2020.2.5,MacIntel,60
,,,,z,0.823,0,102,102,102,1,paints/images/70.jpg,paints/images/183.jpg,103,Yang,001,2020-11-19_13h55.30.915,test3,2020.2.5,MacIntel,60
,,,,m,1.322,0,103,103,103,1,paints/images/10.jpg,paints/images/393.jpg,104,Yang,001,2020-11-19_13h55.30.915,test3,2020.2.5,MacIntel,60
,,,,z,0.901,0,104,104,104,1,paints/images/378.jpg,paints/images/181.jpg,105,Yang,001,2020-11-19_13h55.30.915,test3,2020.2.5,MacIntel,60
,,,,m,1.288,0,105,105,105,1,paints/images/303.jpg,paints/images/334.jpg,106,Yang,001,2020-11-19_13h55.30.915,test3,2020.2.5,MacIntel,60
,,,,z,2.438,0,106,106,106,1,paints/images/328.jpg,paints/images/344.jpg,107,Yang,001,2020-11-19_13h55.30.915,test3,2020.2.5,MacIntel,60
,,,,m,0.905,0,107,107,107,1,paints/images/397.jpg,paints/images/318.jpg,108,Yang,001,2020-11-19_13h55.30.915,test3,2020.2.5,MacIntel,60
,,,,m,1.601,0,108,108,108,1,paints/images/365.jpg,paints/images/211.jpg,109,Yang,001,2020-11-19_13h55.30.915,test3,2020.2.5,MacIntel,60
,,,,m,1.536,0,109,109,109,1,paints/images/23.jpg,paints/images/46.jpg,110,Yang,001,2020-11-19_13h55.30.915,test3,2020.2.5,MacIntel,60
,,,,m,0.751,0,110,110,110,1,paints/images/304.jpg,paints/images/11.jpg,111,Yang,001,2020-11-19_13h55.30.915,test3,2020.2.5,MacIntel,60
,,,,z,1.599,0,111,111,111,1,paints/images/226.jpg,paints/images/6.jpg,112,Yang,001,2020-11-19_13h55.30.915,test3,2020.2.5,MacIntel,60
,,,,m,0.9,0,112,112,112,1,paints/images/170.jpg,paints/images/262.jpg,113,Yang,001,2020-11-19_13h55.30.915,test3,2020.2.5,MacIntel,60
,,,,m,1.13,0,113,113,113,1,paints/images/259.jpg,paints/images/343.jpg,114,Yang,001,2020-11-19_13h55.30.915,test3,2020.2.5,MacIntel,60
,,,,m,1.632,0,114,114,114,1,paints/images/19.jpg,paints/images/394.jpg,115,Yang,001,2020-11-19_13h55.30.915,test3,2020.2.5,MacIntel,60
,,,,m,2.354,0,115,115,115,1,paints/images/215.jpg,paints/images/19.jpg,116,Yang,001,2020-11-19_13h55.30.915,test3,2020.2.5,MacIntel,60
,,,,m,0.901,0,116,116,116,1,paints/images/52.jpg,paints/images/360.jpg,117,Yang,001,2020-11-19_13h55.30.915,test3,2020.2.5,MacIntel,60
,,,,m,1.385,0,117,117,117,1,paints/images/99.jpg,paints/images/328.jpg,118,Yang,001,2020-11-19_13h55.30.915,test3,2020.2.5,MacIntel,60
,,,,z,2.019,0,118,118,118,1,paints/images/150.jpg,paints/images/164.jpg,119,Yang,001,2020-11-19_13h55.30.915,test3,2020.2.5,MacIntel,60
,,,,z,0.894,0,119,119,119,1,paints/images/172.jpg,paints/images/213.jpg,120,Yang,001,2020-11-19_13h55.30.915,test3,2020.2.5,MacIntel,60
,,,,m,2.039,0,120,120,120,1,paints/images/50.jpg,paints/images/101.jpg,121,Yang,001,2020-11-19_13h55.30.915,test3,2020.2.5,MacIntel,60
,,,,m,1.132,0,121,121,121,1,paints/images/358.jpg,paints/images/354.jpg,122,Yang,001,2020-11-19_13h55.30.915,test3,2020.2.5,MacIntel,60
,,,,m,1.101,0,122,122,122,1,paints/images/257.jpg,paints/images/265.jpg,123,Yang,001,2020-11-19_13h55.30.915,test3,2020.2.5,MacIntel,60
,,,,z,185.057,0,123,123,123,1,paints/images/91.jpg,paints/images/342.jpg,124,Yang,001,2020-11-19_13h55.30.915,test3,2020.2.5,MacIntel,60
,,,,z,1.77,0,124,124,124,1,paints/images/168.jpg,paints/images/132.jpg,125,Yang,001,2020-11-19_13h55.30.915,test3,2020.2.5,MacIntel,60
,,,,z,0.999,0,125,125,125,1,paints/images/280.jpg,paints/images/98.jpg,126,Yang,001,2020-11-19_13h55.30.915,test3,2020.2.5,MacIntel,60
,,,,z,1.506,0,126,126,126,1,paints/images/261.jpg,paints/images/40.jpg,127,Yang,001,2020-11-19_13h55.30.915,test3,2020.2.5,MacIntel,60
,,,,m,1.704,0,127,127,127,1,paints/images/333.jpg,paints/images/66.jpg,128,Yang,001,2020-11-19_13h55.30.915,test3,2020.2.5,MacIntel,60
,,,,m,1.868,0,128,128,128,1,paints/images/96.jpg,paints/images/82.jpg,129,Yang,001,2020-11-19_13h55.30.915,test3,2020.2.5,MacIntel,60
,,,,m,1.339,0,129,129,129,1,paints/images/32.jpg,paints/images/325.jpg,130,Yang,001,2020-11-19_13h55.30.915,test3,2020.2.5,MacIntel,60
,,,,z,1.288,0,130,130,130,1,paints/images/268.jpg,paints/images/167.jpg,131,Yang,001,2020-11-19_13h55.30.915,test3,2020.2.5,MacIntel,60
,,,,m,0.939,0,131,131,131,1,paints/images/162.jpg,paints/images/25.jpg,132,Yang,001,2020-11-19_13h55.30.915,test3,2020.2.5,MacIntel,60
,,,,z,1.234,0,132,132,132,1,paints/images/53.jpg,paints/images/305.jpg,133,Yang,001,2020-11-19_13h55.30.915,test3,2020.2.5,MacIntel,60
,,,,m,1.673,0,133,133,133,1,paints/images/263.jpg,paints/images/209.jpg,134,Yang,001,2020-11-19_13h55.30.915,test3,2020.2.5,MacIntel,60
,,,,m,1.033,0,134,134,134,1,paints/images/92.jpg,paints/images/364.jpg,135,Yang,001,2020-11-19_13h55.30.915,test3,2020.2.5,MacIntel,60
,,,,m,1.771,0,135,135,135,1,paints/images/61.jpg,paints/images/291.jpg,136,Yang,001,2020-11-19_13h55.30.915,test3,2020.2.5,MacIntel,60
,,,,z,0.851,0,136,136,136,1,paints/images/293.jpg,paints/images/283.jpg,137,Yang,001,2020-11-19_13h55.30.915,test3,2020.2.5,MacIntel,60
,,,,z,2.273,0,137,137,137,1,paints/images/229.jpg,paints/images/173.jpg,138,Yang,001,2020-11-19_13h55.30.915,test3,2020.2.5,MacIntel,60
,,,,z,1.107,0,138,138,138,1,paints/images/41.jpg,paints/images/133.jpg,139,Yang,001,2020-11-19_13h55.30.915,test3,2020.2.5,MacIntel,60
,,,,z,1.237,0,139,139,139,1,paints/images/182.jpg,paints/images/348.jpg,140,Yang,001,2020-11-19_13h55.30.915,test3,2020.2.5,MacIntel,60
,,,,m,2.177,0,140,140,140,1,paints/images/379.jpg,paints/images/228.jpg,141,Yang,001,2020-11-19_13h55.30.915,test3,2020.2.5,MacIntel,60
,,,,m,2.859,0,141,141,141,1,paints/images/188.jpg,paints/images/13.jpg,142,Yang,001,2020-11-19_13h55.30.915,test3,2020.2.5,MacIntel,60
,,,,m,1.217,0,142,142,142,1,paints/images/40.jpg,paints/images/329.jpg,143,Yang,001,2020-11-19_13h55.30.915,test3,2020.2.5,MacIntel,60
,,,,m,2.603,0,143,143,143,1,paints/images/323.jpg,paints/images/165.jpg,144,Yang,001,2020-11-19_13h55.30.915,test3,2020.2.5,MacIntel,60
,,,,m,1.651,0,144,144,144,1,paints/images/78.jpg,paints/images/407.jpg,145,Yang,001,2020-11-19_13h55.30.915,test3,2020.2.5,MacIntel,60
,,,,m,1.218,0,145,145,145,1,paints/images/242.jpg,paints/images/75.jpg,146,Yang,001,2020-11-19_13h55.30.915,test3,2020.2.5,MacIntel,60
,,,,m,1.545,0,146,146,146,1,paints/images/62.jpg,paints/images/187.jpg,147,Yang,001,2020-11-19_13h55.30.915,test3,2020.2.5,MacIntel,60
,,,,m,1.236,0,147,147,147,1,paints/images/131.jpg,paints/images/285.jpg,148,Yang,001,2020-11-19_13h55.30.915,test3,2020.2.5,MacIntel,60
,,,,m,1.131,0,148,148,148,1,paints/images/241.jpg,paints/images/97.jpg,149,Yang,001,2020-11-19_13h55.30.915,test3,2020.2.5,MacIntel,60
,,,,m,1.18,0,149,149,149,1,paints/images/132.jpg,paints/images/289.jpg,150,Yang,001,2020-11-19_13h55.30.915,test3,2020.2.5,MacIntel,60
,,,,m,1.407,0,150,150,150,1,paints/images/185.jpg,paints/images/54.jpg,151,Yang,001,2020-11-19_13h55.30.915,test3,2020.2.5,MacIntel,60
,,,,z,0.97,0,151,151,151,1,paints/images/272.jpg,paints/images/51.jpg,152,Yang,001,2020-11-19_13h55.30.915,test3,2020.2.5,MacIntel,60
,,,,z,1.42,0,152,152,152,1,paints/images/403.jpg,paints/images/71.jpg,153,Yang,001,2020-11-19_13h55.30.915,test3,2020.2.5,MacIntel,60
,,,,m,1.302,0,153,153,153,1,paints/images/202.jpg,paints/images/219.jpg,154,Yang,001,2020-11-19_13h55.30.915,test3,2020.2.5,MacIntel,60
,,,,m,1.186,0,154,154,154,1,paints/images/34.jpg,paints/images/271.jpg,155,Yang,001,2020-11-19_13h55.30.915,test3,2020.2.5,MacIntel,60
,,,,m,1.451,0,155,155,155,1,paints/images/296.jpg,paints/images/90.jpg,156,Yang,001,2020-11-19_13h55.30.915,test3,2020.2.5,MacIntel,60
,,,,z,1.005,0,156,156,156,1,paints/images/25.jpg,paints/images/338.jpg,157,Yang,001,2020-11-19_13h55.30.915,test3,2020.2.5,MacIntel,60
,,,,m,0.823,0,157,157,157,1,paints/images/396.jpg,paints/images/78.jpg,158,Yang,001,2020-11-19_13h55.30.915,test3,2020.2.5,MacIntel,60
,,,,z,0.65,0,158,158,158,1,paints/images/72.jpg,paints/images/111.jpg,159,Yang,001,2020-11-19_13h55.30.915,test3,2020.2.5,MacIntel,60
,,,,z,1.687,0,159,159,159,1,paints/images/164.jpg,paints/images/16.jpg,160,Yang,001,2020-11-19_13h55.30.915,test3,2020.2.5,MacIntel,60
,,,,m,1.265,0,160,160,160,1,paints/images/387.jpg,paints/images/244.jpg,161,Yang,001,2020-11-19_13h55.30.915,test3,2020.2.5,MacIntel,60
,,,,m,0.851,0,161,161,161,1,paints/images/64.jpg,paints/images/260.jpg,162,Yang,001,2020-11-19_13h55.30.915,test3,2020.2.5,MacIntel,60
,,,,m,2.148,0,162,162,162,1,paints/images/160.jpg,paints/images/63.jpg,163,Yang,001,2020-11-19_13h55.30.915,test3,2020.2.5,MacIntel,60
,,,,m,0.767,0,163,163,163,1,paints/images/3.jpg,paints/images/282.jpg,164,Yang,001,2020-11-19_13h55.30.915,test3,2020.2.5,MacIntel,60
,,,,m,2.206,0,164,164,164,1,paints/images/307.jpg,paints/images/152.jpg,165,Yang,001,2020-11-19_13h55.30.915,test3,2020.2.5,MacIntel,60
,,,,m,1.27,0,165,165,165,1,paints/images/311.jpg,paints/images/123.jpg,166,Yang,001,2020-11-19_13h55.30.915,test3,2020.2.5,MacIntel,60
,,,,m,2.351,0,166,166,166,1,paints/images/143.jpg,paints/images/286.jpg,167,Yang,001,2020-11-19_13h55.30.915,test3,2020.2.5,MacIntel,60
,,,,z,1.018,0,167,167,167,1,paints/images/97.jpg,paints/images/216.jpg,168,Yang,001,2020-11-19_13h55.30.915,test3,2020.2.5,MacIntel,60
,,,,z,1.019,0,168,168,168,1,paints/images/395.jpg,paints/images/170.jpg,169,Yang,001,2020-11-19_13h55.30.915,test3,2020.2.5,MacIntel,60
,,,,z,1.101,0,169,169,169,1,paints/images/151.jpg,paints/images/26.jpg,170,Yang,001,2020-11-19_13h55.30.915,test3,2020.2.5,MacIntel,60
,,,,z,0.927,0,170,170,170,1,paints/images/51.jpg,paints/images/32.jpg,171,Yang,001,2020-11-19_13h55.30.915,test3,2020.2.5,MacIntel,60
,,,,z,1.8,0,171,171,171,1,paints/images/305.jpg,paints/images/176.jpg,172,Yang,001,2020-11-19_13h55.30.915,test3,2020.2.5,MacIntel,60
,,,,m,1.774,0,172,172,172,1,paints/images/137.jpg,paints/images/48.jpg,173,Yang,001,2020-11-19_13h55.30.915,test3,2020.2.5,MacIntel,60
,,,,m,1.034,0,173,173,173,1,paints/images/65.jpg,paints/images/243.jpg,174,Yang,001,2020-11-19_13h55.30.915,test3,2020.2.5,MacIntel,60
,,,,z,2.59,0,174,174,174,1,paints/images/115.jpg,paints/images/210.jpg,175,Yang,001,2020-11-19_13h55.30.915,test3,2020.2.5,MacIntel,60
,,,,m,2.3,0,175,175,175,1,paints/images/310.jpg,paints/images/58.jpg,176,Yang,001,2020-11-19_13h55.30.915,test3,2020.2.5,MacIntel,60
,,,,m,1.318,0,176,176,176,1,paints/images/1.jpg,paints/images/112.jpg,177,Yang,001,2020-11-19_13h55.30.915,test3,2020.2.5,MacIntel,60
,,,,m,1.068,0,177,177,177,1,paints/images/125.jpg,paints/images/17.jpg,178,Yang,001,2020-11-19_13h55.30.915,test3,2020.2.5,MacIntel,60
,,,,z,0.999,0,178,178,178,1,paints/images/279.jpg,paints/images/166.jpg,179,Yang,001,2020-11-19_13h55.30.915,test3,2020.2.5,MacIntel,60
,,,,m,1.332,0,179,179,179,1,paints/images/316.jpg,paints/images/306.jpg,180,Yang,001,2020-11-19_13h55.30.915,test3,2020.2.5,MacIntel,60
,,,,m,1.015,0,180,180,180,1,paints/images/22.jpg,paints/images/214.jpg,181,Yang,001,2020-11-19_13h55.30.915,test3,2020.2.5,MacIntel,60
,,,,m,2.119,0,181,181,181,1,paints/images/54.jpg,paints/images/235.jpg,182,Yang,001,2020-11-19_13h55.30.915,test3,2020.2.5,MacIntel,60
,,,,z,1.529,0,182,182,182,1,paints/images/225.jpg,paints/images/160.jpg,183,Yang,001,2020-11-19_13h55.30.915,test3,2020.2.5,MacIntel,60
,,,,z,1.013,0,183,183,183,1,paints/images/339.jpg,paints/images/59.jpg,184,Yang,001,2020-11-19_13h55.30.915,test3,2020.2.5,MacIntel,60
,,,,z,1.189,0,184,184,184,1,paints/images/409.jpg,paints/images/180.jpg,185,Yang,001,2020-11-19_13h55.30.915,test3,2020.2.5,MacIntel,60
,,,,m,1.341,0,185,185,185,1,paints/images/145.jpg,paints/images/115.jpg,186,Yang,001,2020-11-19_13h55.30.915,test3,2020.2.5,MacIntel,60
,,,,z,1.467,0,186,186,186,1,paints/images/147.jpg,paints/images/37.jpg,187,Yang,001,2020-11-19_13h55.30.915,test3,2020.2.5,MacIntel,60
,,,,z,1.251,0,187,187,187,1,paints/images/288.jpg,paints/images/64.jpg,188,Yang,001,2020-11-19_13h55.30.915,test3,2020.2.5,MacIntel,60
,,,,z,1.404,0,188,188,188,1,paints/images/235.jpg,paints/images/201.jpg,189,Yang,001,2020-11-19_13h55.30.915,test3,2020.2.5,MacIntel,60
,,,,m,1.026,0,189,189,189,1,paints/images/313.jpg,paints/images/2.jpg,190,Yang,001,2020-11-19_13h55.30.915,test3,2020.2.5,MacIntel,60
,,,,z,1.102,0,190,190,190,1,paints/images/329.jpg,paints/images/38.jpg,191,Yang,001,2020-11-19_13h55.30.915,test3,2020.2.5,MacIntel,60
,,,,m,1.953,0,191,191,191,1,paints/images/9.jpg,paints/images/241.jpg,192,Yang,001,2020-11-19_13h55.30.915,test3,2020.2.5,MacIntel,60
,,,,z,0.906,0,192,192,192,1,paints/images/364.jpg,paints/images/44.jpg,193,Yang,001,2020-11-19_13h55.30.915,test3,2020.2.5,MacIntel,60
,,,,z,1.92,0,193,193,193,1,paints/images/14.jpg,paints/images/109.jpg,194,Yang,001,2020-11-19_13h55.30.915,test3,2020.2.5,MacIntel,60
,,,,z,1.218,0,194,194,194,1,paints/images/0.jpg,paints/images/14.jpg,195,Yang,001,2020-11-19_13h55.30.915,test3,2020.2.5,MacIntel,60
,,,,z,1.167,0,195,195,195,1,paints/images/398.jpg,paints/images/247.jpg,196,Yang,001,2020-11-19_13h55.30.915,test3,2020.2.5,MacIntel,60
,,,,m,1.252,0,196,196,196,1,paints/images/377.jpg,paints/images/237.jpg,197,Yang,001,2020-11-19_13h55.30.915,test3,2020.2.5,MacIntel,60
,,,,z,2.299,0,197,197,197,1,paints/images/246.jpg,paints/images/184.jpg,198,Yang,001,2020-11-19_13h55.30.915,test3,2020.2.5,MacIntel,60
,,,,z,1.768,0,198,198,198,1,paints/images/299.jpg,paints/images/301.jpg,199,Yang,001,2020-11-19_13h55.30.915,test3,2020.2.5,MacIntel,60
,,,,z,1.519,0,199,199,199,1,paints/images/116.jpg,paints/images/148.jpg,200,Yang,001,2020-11-19_13h55.30.915,test3,2020.2.5,MacIntel,60
,,,,z,1.836,0,200,200,200,1,paints/images/267.jpg,paints/images/336.jpg,201,Yang,001,2020-11-19_13h55.30.915,test3,2020.2.5,MacIntel,60
,,,,z,0.935,0,201,201,201,1,paints/images/6.jpg,paints/images/182.jpg,202,Yang,001,2020-11-19_13h55.30.915,test3,2020.2.5,MacIntel,60
,,,,m,2.15,0,202,202,202,1,paints/images/348.jpg,paints/images/105.jpg,203,Yang,001,2020-11-19_13h55.30.915,test3,2020.2.5,MacIntel,60
,,,,z,3.504,0,203,203,203,1,paints/images/404.jpg,paints/images/372.jpg,204,Yang,001,2020-11-19_13h55.30.915,test3,2020.2.5,MacIntel,60
,,,,z,2.052,0,204,204,204,1,paints/images/324.jpg,paints/images/134.jpg,205,Yang,001,2020-11-19_13h55.30.915,test3,2020.2.5,MacIntel,60
,,,,z,0.733,0,205,205,205,1,paints/images/278.jpg,paints/images/269.jpg,206,Yang,001,2020-11-19_13h55.30.915,test3,2020.2.5,MacIntel,60
,,,,z,1.335,0,206,206,206,1,paints/images/237.jpg,paints/images/375.jpg,207,Yang,001,2020-11-19_13h55.30.915,test3,2020.2.5,MacIntel,60
,,,,m,1.588,0,207,207,207,1,paints/images/109.jpg,paints/images/224.jpg,208,Yang,001,2020-11-19_13h55.30.915,test3,2020.2.5,MacIntel,60
,,,,z,1.348,0,208,208,208,1,paints/images/318.jpg,paints/images/127.jpg,209,Yang,001,2020-11-19_13h55.30.915,test3,2020.2.5,MacIntel,60
,,,,m,0.716,0,209,209,209,1,paints/images/120.jpg,paints/images/254.jpg,210,Yang,001,2020-11-19_13h55.30.915,test3,2020.2.5,MacIntel,60
,,,,m,1.372,0,210,210,210,1,paints/images/86.jpg,paints/images/67.jpg,211,Yang,001,2020-11-19_13h55.30.915,test3,2020.2.5,MacIntel,60
,,,,z,0.701,0,211,211,211,1,paints/images/302.jpg,paints/images/245.jpg,212,Yang,001,2020-11-19_13h55.30.915,test3,2020.2.5,MacIntel,60
,,,,z,2.391,0,212,212,212,1,paints/images/94.jpg,paints/images/242.jpg,213,Yang,001,2020-11-19_13h55.30.915,test3,2020.2.5,MacIntel,60
,,,,m,1.726,0,213,213,213,1,paints/images/295.jpg,paints/images/72.jpg,214,Yang,001,2020-11-19_13h55.30.915,test3,2020.2.5,MacIntel,60
,,,,z,0.97,0,214,214,214,1,paints/images/227.jpg,paints/images/175.jpg,215,Yang,001,2020-11-19_13h55.30.915,test3,2020.2.5,MacIntel,60
,,,,m,0.971,0,215,215,215,1,paints/images/26.jpg,paints/images/203.jpg,216,Yang,001,2020-11-19_13h55.30.915,test3,2020.2.5,MacIntel,60
,,,,m,0.73,0,216,216,216,1,paints/images/45.jpg,paints/images/272.jpg,217,Yang,001,2020-11-19_13h55.30.915,test3,2020.2.5,MacIntel,60
,,,,z,0.856,0,217,217,217,1,paints/images/410.jpg,paints/images/185.jpg,218,Yang,001,2020-11-19_13h55.30.915,test3,2020.2.5,MacIntel,60
,,,,m,0.943,0,218,218,218,1,paints/images/380.jpg,paints/images/0.jpg,219,Yang,001,2020-11-19_13h55.30.915,test3,2020.2.5,MacIntel,60
,,,,z,2.906,0,219,219,219,1,paints/images/370.jpg,paints/images/106.jpg,220,Yang,001,2020-11-19_13h55.30.915,test3,2020.2.5,MacIntel,60
,,,,z,1.084,0,220,220,220,1,paints/images/102.jpg,paints/images/309.jpg,221,Yang,001,2020-11-19_13h55.30.915,test3,2020.2.5,MacIntel,60
,,,,z,0.96,0,221,221,221,1,paints/images/167.jpg,paints/images/299.jpg,222,Yang,001,2020-11-19_13h55.30.915,test3,2020.2.5,MacIntel,60
,,,,z,0.658,0,222,222,222,1,paints/images/290.jpg,paints/images/192.jpg,223,Yang,001,2020-11-19_13h55.30.915,test3,2020.2.5,MacIntel,60
,,,,z,0.851,0,223,223,223,1,paints/images/82.jpg,paints/images/353.jpg,224,Yang,001,2020-11-19_13h55.30.915,test3,2020.2.5,MacIntel,60
,,,,z,1.355,0,224,224,224,1,paints/images/75.jpg,paints/images/404.jpg,225,Yang,001,2020-11-19_13h55.30.915,test3,2020.2.5,MacIntel,60
,,,,z,1.339,0,225,225,225,1,paints/images/117.jpg,paints/images/100.jpg,226,Yang,001,2020-11-19_13h55.30.915,test3,2020.2.5,MacIntel,60
,,,,m,0.85,0,226,226,226,1,paints/images/200.jpg,paints/images/378.jpg,227,Yang,001,2020-11-19_13h55.30.915,test3,2020.2.5,MacIntel,60
,,,,z,1.027,0,227,227,227,1,paints/images/371.jpg,paints/images/57.jpg,228,Yang,001,2020-11-19_13h55.30.915,test3,2020.2.5,MacIntel,60
,,,,m,0.797,0,228,228,228,1,paints/images/87.jpg,paints/images/302.jpg,229,Yang,001,2020-11-19_13h55.30.915,test3,2020.2.5,MacIntel,60
,,,,m,1.058,0,229,229,229,1,paints/images/208.jpg,paints/images/39.jpg,230,Yang,001,2020-11-19_13h55.30.915,test3,2020.2.5,MacIntel,60
,,,,z,1.229,0,230,230,230,1,paints/images/198.jpg,paints/images/200.jpg,231,Yang,001,2020-11-19_13h55.30.915,test3,2020.2.5,MacIntel,60
,,,,z,1.2,0,231,231,231,1,paints/images/43.jpg,paints/images/42.jpg,232,Yang,001,2020-11-19_13h55.30.915,test3,2020.2.5,MacIntel,60
,,,,m,0.911,0,232,232,232,1,paints/images/286.jpg,paints/images/376.jpg,233,Yang,001,2020-11-19_13h55.30.915,test3,2020.2.5,MacIntel,60
,,,,z,1.958,0,233,233,233,1,paints/images/275.jpg,paints/images/76.jpg,234,Yang,001,2020-11-19_13h55.30.915,test3,2020.2.5,MacIntel,60
,,,,z,1.278,0,234,234,234,1,paints/images/138.jpg,paints/images/129.jpg,235,Yang,001,2020-11-19_13h55.30.915,test3,2020.2.5,MacIntel,60
,,,,z,2.686,0,235,235,235,1,paints/images/386.jpg,paints/images/366.jpg,236,Yang,001,2020-11-19_13h55.30.915,test3,2020.2.5,MacIntel,60
,,,,z,2.141,0,236,236,236,1,paints/images/232.jpg,paints/images/215.jpg,237,Yang,001,2020-11-19_13h55.30.915,test3,2020.2.5,MacIntel,60
,,,,z,1.645,0,237,237,237,1,paints/images/122.jpg,paints/images/199.jpg,238,Yang,001,2020-11-19_13h55.30.915,test3,2020.2.5,MacIntel,60
,,,,z,1.275,0,238,238,238,1,paints/images/388.jpg,paints/images/169.jpg,239,Yang,001,2020-11-19_13h55.30.915,test3,2020.2.5,MacIntel,60
,,,,z,1.105,0,239,239,239,1,paints/images/399.jpg,paints/images/229.jpg,240,Yang,001,2020-11-19_13h55.30.915,test3,2020.2.5,MacIntel,60
,,,,z,0.65,0,240,240,240,1,paints/images/300.jpg,paints/images/1.jpg,241,Yang,001,2020-11-19_13h55.30.915,test3,2020.2.5,MacIntel,60
,,,,z,3.092,0,241,241,241,1,paints/images/195.jpg,paints/images/399.jpg,242,Yang,001,2020-11-19_13h55.30.915,test3,2020.2.5,MacIntel,60
,,,,z,1.246,0,242,242,242,1,paints/images/281.jpg,paints/images/277.jpg,243,Yang,001,2020-11-19_13h55.30.915,test3,2020.2.5,MacIntel,60
,,,,m,0.733,0,243,243,243,1,paints/images/103.jpg,paints/images/288.jpg,244,Yang,001,2020-11-19_13h55.30.915,test3,2020.2.5,MacIntel,60
,,,,z,1.532,0,244,244,244,1,paints/images/297.jpg,paints/images/222.jpg,245,Yang,001,2020-11-19_13h55.30.915,test3,2020.2.5,MacIntel,60
,,,,m,1.149,0,245,245,245,1,paints/images/394.jpg,paints/images/258.jpg,246,Yang,001,2020-11-19_13h55.30.915,test3,2020.2.5,MacIntel,60
,,,,z,1.701,0,246,246,246,1,paints/images/73.jpg,paints/images/49.jpg,247,Yang,001,2020-11-19_13h55.30.915,test3,2020.2.5,MacIntel,60
,,,,m,2.622,0,247,247,247,1,paints/images/112.jpg,paints/images/80.jpg,248,Yang,001,2020-11-19_13h55.30.915,test3,2020.2.5,MacIntel,60
,,,,m,0.94,0,248,248,248,1,paints/images/245.jpg,paints/images/358.jpg,249,Yang,001,2020-11-19_13h55.30.915,test3,2020.2.5,MacIntel,60
,,,,z,3.687,0,249,249,249,1,paints/images/347.jpg,paints/images/143.jpg,250,Yang,001,2020-11-19_13h55.30.915,test3,2020.2.5,MacIntel,60
,,,,z,0.895,0,250,250,250,1,paints/images/352.jpg,paints/images/145.jpg,251,Yang,001,2020-11-19_13h55.30.915,test3,2020.2.5,MacIntel,60
,,,,m,1.191,0,251,251,251,1,paints/images/69.jpg,paints/images/162.jpg,252,Yang,001,2020-11-19_13h55.30.915,test3,2020.2.5,MacIntel,60
,,,,z,1.116,0,252,252,252,1,paints/images/381.jpg,paints/images/202.jpg,253,Yang,001,2020-11-19_13h55.30.915,test3,2020.2.5,MacIntel,60
,,,,m,0.857,0,253,253,253,1,paints/images/361.jpg,paints/images/340.jpg,254,Yang,001,2020-11-19_13h55.30.915,test3,2020.2.5,MacIntel,60
,,,,m,1.845,0,254,254,254,1,paints/images/217.jpg,paints/images/9.jpg,255,Yang,001,2020-11-19_13h55.30.915,test3,2020.2.5,MacIntel,60
,,,,m,1.59,0,255,255,255,1,paints/images/8.jpg,paints/images/409.jpg,256,Yang,001,2020-11-19_13h55.30.915,test3,2020.2.5,MacIntel,60
,,,,m,0.758,0,256,256,256,1,paints/images/59.jpg,paints/images/33.jpg,257,Yang,001,2020-11-19_13h55.30.915,test3,2020.2.5,MacIntel,60
,,,,z,0.908,0,257,257,257,1,paints/images/21.jpg,paints/images/311.jpg,258,Yang,001,2020-11-19_13h55.30.915,test3,2020.2.5,MacIntel,60
,,,,z,4.204,0,258,258,258,1,paints/images/408.jpg,paints/images/31.jpg,259,Yang,001,2020-11-19_13h55.30.915,test3,2020.2.5,MacIntel,60
,,,,z,3.23,0,259,259,259,1,paints/images/98.jpg,paints/images/3.jpg,260,Yang,001,2020-11-19_13h55.30.915,test3,2020.2.5,MacIntel,60
,,,,m,3.71,0,260,260,260,1,paints/images/336.jpg,paints/images/138.jpg,261,Yang,001,2020-11-19_13h55.30.915,test3,2020.2.5,MacIntel,60
,,,,m,0.952,0,261,261,261,1,paints/images/186.jpg,paints/images/395.jpg,262,Yang,001,2020-11-19_13h55.30.915,test3,2020.2.5,MacIntel,60
,,,,z,1.201,0,262,262,262,1,paints/images/76.jpg,paints/images/405.jpg,263,Yang,001,2020-11-19_13h55.30.915,test3,2020.2.5,MacIntel,60
,,,,z,1.168,0,263,263,263,1,paints/images/171.jpg,paints/images/381.jpg,264,Yang,001,2020-11-19_13h55.30.915,test3,2020.2.5,MacIntel,60
,,,,z,1.439,0,264,264,264,1,paints/images/220.jpg,paints/images/70.jpg,265,Yang,001,2020-11-19_13h55.30.915,test3,2020.2.5,MacIntel,60
,,,,m,1.317,0,265,265,265,1,paints/images/337.jpg,paints/images/339.jpg,266,Yang,001,2020-11-19_13h55.30.915,test3,2020.2.5,MacIntel,60
,,,,z,0.687,0,266,266,266,1,paints/images/258.jpg,paints/images/85.jpg,267,Yang,001,2020-11-19_13h55.30.915,test3,2020.2.5,MacIntel,60
,,,,m,1.384,0,267,267,267,1,paints/images/273.jpg,paints/images/113.jpg,268,Yang,001,2020-11-19_13h55.30.915,test3,2020.2.5,MacIntel,60
,,,,m,1.307,0,268,268,268,1,paints/images/353.jpg,paints/images/368.jpg,269,Yang,001,2020-11-19_13h55.30.915,test3,2020.2.5,MacIntel,60
,,,,m,0.774,0,269,269,269,1,paints/images/187.jpg,paints/images/86.jpg,270,Yang,001,2020-11-19_13h55.30.915,test3,2020.2.5,MacIntel,60
,,,,m,0.942,0,270,270,270,1,paints/images/176.jpg,paints/images/193.jpg,271,Yang,001,2020-11-19_13h55.30.915,test3,2020.2.5,MacIntel,60
,,,,m,1.146,0,271,271,271,1,paints/images/175.jpg,paints/images/194.jpg,272,Yang,001,2020-11-19_13h55.30.915,test3,2020.2.5,MacIntel,60
,,,,z,1.156,0,272,272,272,1,paints/images/407.jpg,paints/images/81.jpg,273,Yang,001,2020-11-19_13h55.30.915,test3,2020.2.5,MacIntel,60
,,,,z,0.738,0,273,273,273,1,paints/images/276.jpg,paints/images/77.jpg,274,Yang,001,2020-11-19_13h55.30.915,test3,2020.2.5,MacIntel,60
,,,,z,1.759,0,274,274,274,1,paints/images/291.jpg,paints/images/314.jpg,275,Yang,001,2020-11-19_13h55.30.915,test3,2020.2.5,MacIntel,60
,,,,m,1.172,0,275,275,275,1,paints/images/127.jpg,paints/images/36.jpg,276,Yang,001,2020-11-19_13h55.30.915,test3,2020.2.5,MacIntel,60
,,,,z,1.212,0,276,276,276,1,paints/images/372.jpg,paints/images/161.jpg,277,Yang,001,2020-11-19_13h55.30.915,test3,2020.2.5,MacIntel,60
,,,,z,1.684,0,277,277,277,1,paints/images/283.jpg,paints/images/350.jpg,278,Yang,001,2020-11-19_13h55.30.915,test3,2020.2.5,MacIntel,60
,,,,m,1.238,0,278,278,278,1,paints/images/106.jpg,paints/images/68.jpg,279,Yang,001,2020-11-19_13h55.30.915,test3,2020.2.5,MacIntel,60
,,,,m,0.842,0,279,279,279,1,paints/images/224.jpg,paints/images/266.jpg,280,Yang,001,2020-11-19_13h55.30.915,test3,2020.2.5,MacIntel,60
,,,,m,0.62,0,280,280,280,1,paints/images/375.jpg,paints/images/264.jpg,281,Yang,001,2020-11-19_13h55.30.915,test3,2020.2.5,MacIntel,60
,,,,z,1.08,0,281,281,281,1,paints/images/47.jpg,paints/images/87.jpg,282,Yang,001,2020-11-19_13h55.30.915,test3,2020.2.5,MacIntel,60
,,,,m,0.734,0,282,282,282,1,paints/images/38.jpg,paints/images/298.jpg,283,Yang,001,2020-11-19_13h55.30.915,test3,2020.2.5,MacIntel,60
,,,,z,2.58,0,283,283,283,1,paints/images/161.jpg,paints/images/28.jpg,284,Yang,001,2020-11-19_13h55.30.915,test3,2020.2.5,MacIntel,60
,,,,z,0.689,0,284,284,284,1,paints/images/298.jpg,paints/images/345.jpg,285,Yang,001,2020-11-19_13h55.30.915,test3,2020.2.5,MacIntel,60
,,,,z,10.123,0,285,285,285,1,paints/images/163.jpg,paints/images/205.jpg,286,Yang,001,2020-11-19_13h55.30.915,test3,2020.2.5,MacIntel,60
,,,,z,1.285,0,286,286,286,1,paints/images/121.jpg,paints/images/252.jpg,287,Yang,001,2020-11-19_13h55.30.915,test3,2020.2.5,MacIntel,60
,,,,m,2.319,0,287,287,287,1,paints/images/247.jpg,paints/images/95.jpg,288,Yang,001,2020-11-19_13h55.30.915,test3,2020.2.5,MacIntel,60
,,,,z,1.158,0,288,288,288,1,paints/images/321.jpg,paints/images/150.jpg,289,Yang,001,2020-11-19_13h55.30.915,test3,2020.2.5,MacIntel,60
,,,,z,1.543,0,289,289,289,1,paints/images/46.jpg,paints/images/226.jpg,290,Yang,001,2020-11-19_13h55.30.915,test3,2020.2.5,MacIntel,60
,,,,m,0.877,0,290,290,290,1,paints/images/154.jpg,paints/images/263.jpg,291,Yang,001,2020-11-19_13h55.30.915,test3,2020.2.5,MacIntel,60
,,,,z,0.308,0,291,291,291,1,paints/images/191.jpg,paints/images/158.jpg,292,Yang,001,2020-11-19_13h55.30.915,test3,2020.2.5,MacIntel,60
,,,,m,1.259,0,292,292,292,1,paints/images/49.jpg,paints/images/227.jpg,293,Yang,001,2020-11-19_13h55.30.915,test3,2020.2.5,MacIntel,60
,,,,z,1.51,0,293,293,293,1,paints/images/124.jpg,paints/images/89.jpg,294,Yang,001,2020-11-19_13h55.30.915,test3,2020.2.5,MacIntel,60
,,,,m,2.547,0,294,294,294,1,paints/images/390.jpg,paints/images/43.jpg,295,Yang,001,2020-11-19_13h55.30.915,test3,2020.2.5,MacIntel,60
,,,,z,2.442,0,295,295,295,1,paints/images/42.jpg,paints/images/268.jpg,296,Yang,001,2020-11-19_13h55.30.915,test3,2020.2.5,MacIntel,60
,,,,m,1.32,0,296,296,296,1,paints/images/113.jpg,paints/images/386.jpg,297,Yang,001,2020-11-19_13h55.30.915,test3,2020.2.5,MacIntel,60
,,,,z,3.428,0,297,297,297,1,paints/images/287.jpg,paints/images/307.jpg,298,Yang,001,2020-11-19_13h55.30.915,test3,2020.2.5,MacIntel,60
,,,,m,0.732,0,298,298,298,1,paints/images/134.jpg,paints/images/300.jpg,299,Yang,001,2020-11-19_13h55.30.915,test3,2020.2.5,MacIntel,60
,,,,z,1.722,0,299,299,299,1,paints/images/60.jpg,paints/images/206.jpg,300,Yang,001,2020-11-19_13h55.30.915,test3,2020.2.5,MacIntel,60
,,,,m,2.45,0,300,300,300,1,paints/images/384.jpg,paints/images/335.jpg,301,Yang,001,2020-11-19_13h55.30.915,test3,2020.2.5,MacIntel,60
,,,,m,0.692,0,301,301,301,1,paints/images/326.jpg,paints/images/139.jpg,302,Yang,001,2020-11-19_13h55.30.915,test3,2020.2.5,MacIntel,60
,,,,z,0.976,0,302,302,302,1,paints/images/166.jpg,paints/images/374.jpg,303,Yang,001,2020-11-19_13h55.30.915,test3,2020.2.5,MacIntel,60
,,,,z,0.924,0,303,303,303,1,paints/images/360.jpg,paints/images/10.jpg,304,Yang,001,2020-11-19_13h55.30.915,test3,2020.2.5,MacIntel,60
,,,,z,1.308,0,304,304,304,1,paints/images/158.jpg,paints/images/149.jpg,305,Yang,001,2020-11-19_13h55.30.915,test3,2020.2.5,MacIntel,60
,,,,z,0.866,0,305,305,305,1,paints/images/159.jpg,paints/images/362.jpg,306,Yang,001,2020-11-19_13h55.30.915,test3,2020.2.5,MacIntel,60
,,,,z,1.208,0,306,306,306,1,paints/images/214.jpg,paints/images/116.jpg,307,Yang,001,2020-11-19_13h55.30.915,test3,2020.2.5,MacIntel,60
,,,,z,1.275,0,307,307,307,1,paints/images/256.jpg,paints/images/323.jpg,308,Yang,001,2020-11-19_13h55.30.915,test3,2020.2.5,MacIntel,60
,,,,z,1.7,0,308,308,308,1,paints/images/36.jpg,paints/images/157.jpg,309,Yang,001,2020-11-19_13h55.30.915,test3,2020.2.5,MacIntel,60
,,,,z,0.726,0,309,309,309,1,paints/images/101.jpg,paints/images/126.jpg,310,Yang,001,2020-11-19_13h55.30.915,test3,2020.2.5,MacIntel,60
,,,,m,0.676,0,310,310,310,1,paints/images/265.jpg,paints/images/35.jpg,311,Yang,001,2020-11-19_13h55.30.915,test3,2020.2.5,MacIntel,60
,,,,z,0.806,0,311,311,311,1,paints/images/392.jpg,paints/images/233.jpg,312,Yang,001,2020-11-19_13h55.30.915,test3,2020.2.5,MacIntel,60
,,,,z,1.7,0,312,312,312,1,paints/images/251.jpg,paints/images/12.jpg,313,Yang,001,2020-11-19_13h55.30.915,test3,2020.2.5,MacIntel,60
,,,,m,1.487,0,313,313,313,1,paints/images/12.jpg,paints/images/144.jpg,314,Yang,001,2020-11-19_13h55.30.915,test3,2020.2.5,MacIntel,60
,,,,m,2.414,0,314,314,314,1,paints/images/133.jpg,paints/images/331.jpg,315,Yang,001,2020-11-19_13h55.30.915,test3,2020.2.5,MacIntel,60
,,,,z,0.977,0,315,315,315,1,paints/images/383.jpg,paints/images/99.jpg,316,Yang,001,2020-11-19_13h55.30.915,test3,2020.2.5,MacIntel,60
,,,,z,0.777,0,316,316,316,1,paints/images/211.jpg,paints/images/303.jpg,317,Yang,001,2020-11-19_13h55.30.915,test3,2020.2.5,MacIntel,60
,,,,m,0.96,0,317,317,317,1,paints/images/201.jpg,paints/images/238.jpg,318,Yang,001,2020-11-19_13h55.30.915,test3,2020.2.5,MacIntel,60
,,,,z,0.531,0,318,318,318,1,paints/images/205.jpg,paints/images/102.jpg,319,Yang,001,2020-11-19_13h55.30.915,test3,2020.2.5,MacIntel,60
,,,,z,0.763,0,319,319,319,1,paints/images/270.jpg,paints/images/322.jpg,320,Yang,001,2020-11-19_13h55.30.915,test3,2020.2.5,MacIntel,60
,,,,m,1.066,0,320,320,320,1,paints/images/341.jpg,paints/images/248.jpg,321,Yang,001,2020-11-19_13h55.30.915,test3,2020.2.5,MacIntel,60
,,,,m,1.123,0,321,321,321,1,paints/images/141.jpg,paints/images/94.jpg,322,Yang,001,2020-11-19_13h55.30.915,test3,2020.2.5,MacIntel,60
,,,,z,0.854,0,322,322,322,1,paints/images/83.jpg,paints/images/327.jpg,323,Yang,001,2020-11-19_13h55.30.915,test3,2020.2.5,MacIntel,60
,,,,z,1.045,0,323,323,323,1,paints/images/327.jpg,paints/images/110.jpg,324,Yang,001,2020-11-19_13h55.30.915,test3,2020.2.5,MacIntel,60
,,,,z,1.475,0,324,324,324,1,paints/images/157.jpg,paints/images/79.jpg,325,Yang,001,2020-11-19_13h55.30.915,test3,2020.2.5,MacIntel,60
,,,,m,1.184,0,325,325,325,1,paints/images/193.jpg,paints/images/74.jpg,326,Yang,001,2020-11-19_13h55.30.915,test3,2020.2.5,MacIntel,60
,,,,m,0.924,0,326,326,326,1,paints/images/140.jpg,paints/images/292.jpg,327,Yang,001,2020-11-19_13h55.30.915,test3,2020.2.5,MacIntel,60
,,,,m,1.463,0,327,327,327,1,paints/images/107.jpg,paints/images/92.jpg,328,Yang,001,2020-11-19_13h55.30.915,test3,2020.2.5,MacIntel,60
,,,,m,1.553,0,328,328,328,1,paints/images/7.jpg,paints/images/56.jpg,329,Yang,001,2020-11-19_13h55.30.915,test3,2020.2.5,MacIntel,60
,,,,z,0.487,0,329,329,329,1,paints/images/177.jpg,paints/images/141.jpg,330,Yang,001,2020-11-19_13h55.30.915,test3,2020.2.5,MacIntel,60
,,,,z,1.279,0,330,330,330,1,paints/images/244.jpg,paints/images/250.jpg,331,Yang,001,2020-11-19_13h55.30.915,test3,2020.2.5,MacIntel,60
,,,,z,2.064,0,331,331,331,1,paints/images/253.jpg,paints/images/8.jpg,332,Yang,001,2020-11-19_13h55.30.915,test3,2020.2.5,MacIntel,60
,,,,m,0.871,0,332,332,332,1,paints/images/136.jpg,paints/images/108.jpg,333,Yang,001,2020-11-19_13h55.30.915,test3,2020.2.5,MacIntel,60
,,,,z,0.309,0,333,333,333,1,paints/images/165.jpg,paints/images/147.jpg,334,Yang,001,2020-11-19_13h55.30.915,test3,2020.2.5,MacIntel,60
,,,,z,1.106,0,334,334,334,1,paints/images/39.jpg,paints/images/387.jpg,335,Yang,001,2020-11-19_13h55.30.915,test3,2020.2.5,MacIntel,60
,,,,z,1.676,0,335,335,335,1,paints/images/271.jpg,paints/images/125.jpg,336,Yang,001,2020-11-19_13h55.30.915,test3,2020.2.5,MacIntel,60
,,,,m,1.579,0,336,336,336,1,paints/images/90.jpg,paints/images/130.jpg,337,Yang,001,2020-11-19_13h55.30.915,test3,2020.2.5,MacIntel,60
,,,,m,1.182,0,337,337,337,1,paints/images/362.jpg,paints/images/60.jpg,338,Yang,001,2020-11-19_13h55.30.915,test3,2020.2.5,MacIntel,60
,,,,z,2.674,0,338,338,338,1,paints/images/218.jpg,paints/images/153.jpg,339,Yang,001,2020-11-19_13h55.30.915,test3,2020.2.5,MacIntel,60
,,,,m,0.821,0,339,339,339,1,paints/images/18.jpg,paints/images/324.jpg,340,Yang,001,2020-11-19_13h55.30.915,test3,2020.2.5,MacIntel,60
,,,,z,1.043,0,340,340,340,1,paints/images/29.jpg,paints/images/120.jpg,341,Yang,001,2020-11-19_13h55.30.915,test3,2020.2.5,MacIntel,60
,,,,z,2.492,0,341,341,341,1,paints/images/155.jpg,paints/images/142.jpg,342,Yang,001,2020-11-19_13h55.30.915,test3,2020.2.5,MacIntel,60
,,,,z,1.249,0,342,342,342,1,paints/images/148.jpg,paints/images/396.jpg,343,Yang,001,2020-11-19_13h55.30.915,test3,2020.2.5,MacIntel,60
,,,,m,1.423,0,343,343,343,1,paints/images/373.jpg,paints/images/218.jpg,344,Yang,001,2020-11-19_13h55.30.915,test3,2020.2.5,MacIntel,60
,,,,m,1.887,0,344,344,344,1,paints/images/231.jpg,paints/images/73.jpg,345,Yang,001,2020-11-19_13h55.30.915,test3,2020.2.5,MacIntel,60
,,,,m,1.348,0,345,345,345,1,paints/images/240.jpg,paints/images/356.jpg,346,Yang,001,2020-11-19_13h55.30.915,test3,2020.2.5,MacIntel,60
,,,,z,3.582,0,346,346,346,1,paints/images/332.jpg,paints/images/347.jpg,347,Yang,001,2020-11-19_13h55.30.915,test3,2020.2.5,MacIntel,60
,,,,z,0.729,0,347,347,347,1,paints/images/254.jpg,paints/images/310.jpg,348,Yang,001,2020-11-19_13h55.30.915,test3,2020.2.5,MacIntel,60
,,,,m,1.426,0,348,348,348,1,paints/images/405.jpg,paints/images/385.jpg,349,Yang,001,2020-11-19_13h55.30.915,test3,2020.2.5,MacIntel,60
,,,,z,1.696,0,349,349,349,1,paints/images/345.jpg,paints/images/274.jpg,350,Yang,001,2020-11-19_13h55.30.915,test3,2020.2.5,MacIntel,60
,,,,z,1.207,0,350,350,350,1,paints/images/363.jpg,paints/images/18.jpg,351,Yang,001,2020-11-19_13h55.30.915,test3,2020.2.5,MacIntel,60
,,,,m,1.029,0,351,351,351,1,paints/images/37.jpg,paints/images/53.jpg,352,Yang,001,2020-11-19_13h55.30.915,test3,2020.2.5,MacIntel,60
,,,,m,1.127,0,352,352,352,1,paints/images/315.jpg,paints/images/319.jpg,353,Yang,001,2020-11-19_13h55.30.915,test3,2020.2.5,MacIntel,60
,,,,m,1.208,0,353,353,353,1,paints/images/74.jpg,paints/images/403.jpg,354,Yang,001,2020-11-19_13h55.30.915,test3,2020.2.5,MacIntel,60
,,,,z,2.35,0,354,354,354,1,paints/images/156.jpg,paints/images/246.jpg,355,Yang,001,2020-11-19_13h55.30.915,test3,2020.2.5,MacIntel,60
,,,,m,1.457,0,355,355,355,1,paints/images/285.jpg,paints/images/270.jpg,356,Yang,001,2020-11-19_13h55.30.915,test3,2020.2.5,MacIntel,60
,,,,z,1.506,0,356,356,356,1,paints/images/17.jpg,paints/images/398.jpg,357,Yang,001,2020-11-19_13h55.30.915,test3,2020.2.5,MacIntel,60
,,,,m,1.813,0,357,357,357,1,paints/images/335.jpg,paints/images/27.jpg,358,Yang,001,2020-11-19_13h55.30.915,test3,2020.2.5,MacIntel,60
,,,,z,2.641,0,358,358,358,1,paints/images/350.jpg,paints/images/156.jpg,359,Yang,001,2020-11-19_13h55.30.915,test3,2020.2.5,MacIntel,60
,,,,m,1.608,0,359,359,359,1,paints/images/31.jpg,paints/images/231.jpg,360,Yang,001,2020-11-19_13h55.30.915,test3,2020.2.5,MacIntel,60
,,,,m,1.256,0,360,360,360,1,paints/images/114.jpg,paints/images/333.jpg,361,Yang,001,2020-11-19_13h55.30.915,test3,2020.2.5,MacIntel,60
,,,,m,0.755,0,361,361,361,1,paints/images/79.jpg,paints/images/408.jpg,362,Yang,001,2020-11-19_13h55.30.915,test3,2020.2.5,MacIntel,60
,,,,m,1.558,0,362,362,362,1,paints/images/338.jpg,paints/images/279.jpg,363,Yang,001,2020-11-19_13h55.30.915,test3,2020.2.5,MacIntel,60
,,,,z,1.424,0,363,363,363,1,paints/images/354.jpg,paints/images/304.jpg,364,Yang,001,2020-11-19_13h55.30.915,test3,2020.2.5,MacIntel,60
,,,,m,0.839,0,364,364,364,1,paints/images/128.jpg,paints/images/276.jpg,365,Yang,001,2020-11-19_13h55.30.915,test3,2020.2.5,MacIntel,60
,,,,z,0.599,0,365,365,365,1,paints/images/35.jpg,paints/images/188.jpg,366,Yang,001,2020-11-19_13h55.30.915,test3,2020.2.5,MacIntel,60
,,,,z,2.091,0,366,366,366,1,paints/images/16.jpg,paints/images/29.jpg,367,Yang,001,2020-11-19_13h55.30.915,test3,2020.2.5,MacIntel,60
,,,,m,1.312,0,367,367,367,1,paints/images/119.jpg,paints/images/251.jpg,368,Yang,001,2020-11-19_13h55.30.915,test3,2020.2.5,MacIntel,60
,,,,m,2.216,0,368,368,368,1,paints/images/207.jpg,paints/images/65.jpg,369,Yang,001,2020-11-19_13h55.30.915,test3,2020.2.5,MacIntel,60
,,,,z,1.891,0,369,369,369,1,paints/images/173.jpg,paints/images/373.jpg,370,Yang,001,2020-11-19_13h55.30.915,test3,2020.2.5,MacIntel,60
,,,,z,1.176,0,370,370,370,1,paints/images/135.jpg,paints/images/196.jpg,371,Yang,001,2020-11-19_13h55.30.915,test3,2020.2.5,MacIntel,60
,,,,z,0.781,0,371,371,371,1,paints/images/55.jpg,paints/images/316.jpg,372,Yang,001,2020-11-19_13h55.30.915,test3,2020.2.5,MacIntel,60
,,,,z,1.091,0,372,372,372,1,paints/images/343.jpg,paints/images/383.jpg,373,Yang,001,2020-11-19_13h55.30.915,test3,2020.2.5,MacIntel,60
,,,,z,1.425,0,373,373,373,1,paints/images/203.jpg,paints/images/186.jpg,374,Yang,001,2020-11-19_13h55.30.915,test3,2020.2.5,MacIntel,60
,,,,m,1.376,0,374,374,374,1,paints/images/123.jpg,paints/images/128.jpg,375,Yang,001,2020-11-19_13h55.30.915,test3,2020.2.5,MacIntel,60
,,,,z,0.89,0,375,375,375,1,paints/images/391.jpg,paints/images/208.jpg,376,Yang,001,2020-11-19_13h55.30.915,test3,2020.2.5,MacIntel,60
,,,,m,1.277,0,376,376,376,1,paints/images/105.jpg,paints/images/313.jpg,377,Yang,001,2020-11-19_13h55.30.915,test3,2020.2.5,MacIntel,60
,,,,z,0.727,0,377,377,377,1,paints/images/184.jpg,paints/images/69.jpg,378,Yang,001,2020-11-19_13h55.30.915,test3,2020.2.5,MacIntel,60
,,,,m,1.742,0,378,378,378,1,paints/images/63.jpg,paints/images/191.jpg,379,Yang,001,2020-11-19_13h55.30.915,test3,2020.2.5,MacIntel,60
,,,,z,2.306,0,379,379,379,1,paints/images/85.jpg,paints/images/390.jpg,380,Yang,001,2020-11-19_13h55.30.915,test3,2020.2.5,MacIntel,60
,,,,z,1.041,0,380,380,380,1,paints/images/179.jpg,paints/images/177.jpg,381,Yang,001,2020-11-19_13h55.30.915,test3,2020.2.5,MacIntel,60
,,,,z,3.109,0,381,381,381,1,paints/images/320.jpg,paints/images/171.jpg,382,Yang,001,2020-11-19_13h55.30.915,test3,2020.2.5,MacIntel,60
,,,,z,1.259,0,382,382,382,1,paints/images/77.jpg,paints/images/406.jpg,383,Yang,001,2020-11-19_13h55.30.915,test3,2020.2.5,MacIntel,60
,,,,z,1.123,0,383,383,383,1,paints/images/66.jpg,paints/images/255.jpg,384,Yang,001,2020-11-19_13h55.30.915,test3,2020.2.5,MacIntel,60
,,,,m,1.279,0,384,384,384,1,paints/images/308.jpg,paints/images/41.jpg,385,Yang,001,2020-11-19_13h55.30.915,test3,2020.2.5,MacIntel,60
,,,,z,0.631,0,385,385,385,1,paints/images/260.jpg,paints/images/297.jpg,386,Yang,001,2020-11-19_13h55.30.915,test3,2020.2.5,MacIntel,60
,,,,z,2.109,0,386,386,386,1,paints/images/126.jpg,paints/images/273.jpg,387,Yang,001,2020-11-19_13h55.30.915,test3,2020.2.5,MacIntel,60
,,,,m,1.743,0,387,387,387,1,paints/images/68.jpg,paints/images/189.jpg,388,Yang,001,2020-11-19_13h55.30.915,test3,2020.2.5,MacIntel,60
,,,,m,1.241,0,388,388,388,1,paints/images/144.jpg,paints/images/280.jpg,389,Yang,001,2020-11-19_13h55.30.915,test3,2020.2.5,MacIntel,60
,,,,m,1.192,0,389,389,389,1,paints/images/24.jpg,paints/images/389.jpg,390,Yang,001,2020-11-19_13h55.30.915,test3,2020.2.5,MacIntel,60
,,,,m,1.375,0,390,390,390,1,paints/images/222.jpg,paints/images/7.jpg,391,Yang,001,2020-11-19_13h55.30.915,test3,2020.2.5,MacIntel,60
,,,,m,3.773,0,391,391,391,1,paints/images/282.jpg,paints/images/278.jpg,392,Yang,001,2020-11-19_13h55.30.915,test3,2020.2.5,MacIntel,60
,,,,m,2.274,0,392,392,392,1,paints/images/190.jpg,paints/images/61.jpg,393,Yang,001,2020-11-19_13h55.30.915,test3,2020.2.5,MacIntel,60
,,,,z,3.127,0,393,393,393,1,paints/images/212.jpg,paints/images/402.jpg,394,Yang,001,2020-11-19_13h55.30.915,test3,2020.2.5,MacIntel,60
,,,,z,1.624,0,394,394,394,1,paints/images/80.jpg,paints/images/410.jpg,395,Yang,001,2020-11-19_13h55.30.915,test3,2020.2.5,MacIntel,60
,,,,m,0.856,0,395,395,395,1,paints/images/252.jpg,paints/images/382.jpg,396,Yang,001,2020-11-19_13h55.30.915,test3,2020.2.5,MacIntel,60
,,,,m,2.491,0,396,396,396,1,paints/images/71.jpg,paints/images/337.jpg,397,Yang,001,2020-11-19_13h55.30.915,test3,2020.2.5,MacIntel,60
,,,,z,1.025,0,397,397,397,1,paints/images/264.jpg,paints/images/118.jpg,398,Yang,001,2020-11-19_13h55.30.915,test3,2020.2.5,MacIntel,60
,,,,m,3.433,0,398,398,398,1,paints/images/180.jpg,paints/images/357.jpg,399,Yang,001,2020-11-19_13h55.30.915,test3,2020.2.5,MacIntel,60
,,,,z,1.858,0,399,399,399,1,paints/images/357.jpg,paints/images/15.jpg,400,Yang,001,2020-11-19_13h55.30.915,test3,2020.2.5,MacIntel,60
,,,,z,1.245,0,400,400,400,1,paints/images/401.jpg,paints/images/220.jpg,401,Yang,001,2020-11-19_13h55.30.915,test3,2020.2.5,MacIntel,60
,,,,m,1.363,0,401,401,401,1,paints/images/95.jpg,paints/images/135.jpg,402,Yang,001,2020-11-19_13h55.30.915,test3,2020.2.5,MacIntel,60
,,,,m,1.783,0,402,402,402,1,paints/images/152.jpg,paints/images/234.jpg,403,Yang,001,2020-11-19_13h55.30.915,test3,2020.2.5,MacIntel,60
,,,,m,2.233,0,403,403,403,1,paints/images/30.jpg,paints/images/88.jpg,404,Yang,001,2020-11-19_13h55.30.915,test3,2020.2.5,MacIntel,60
,,,,m,0.758,0,404,404,404,1,paints/images/194.jpg,paints/images/392.jpg,405,Yang,001,2020-11-19_13h55.30.915,test3,2020.2.5,MacIntel,60
,,,,z,0.979,0,405,405,405,1,paints/images/351.jpg,paints/images/103.jpg,406,Yang,001,2020-11-19_13h55.30.915,test3,2020.2.5,MacIntel,60
,,,,z,1.059,0,406,406,406,1,paints/images/236.jpg,paints/images/369.jpg,407,Yang,001,2020-11-19_13h55.30.915,test3,2020.2.5,MacIntel,60
,,,,z,2.028,0,407,407,407,1,paints/images/219.jpg,paints/images/136.jpg,408,Yang,001,2020-11-19_13h55.30.915,test3,2020.2.5,MacIntel,60
,,,,m,1.909,0,408,408,408,1,paints/images/306.jpg,paints/images/239.jpg,409,Yang,001,2020-11-19_13h55.30.915,test3,2020.2.5,MacIntel,60
,,,,z,1.278,0,409,409,409,1,paints/images/108.jpg,paints/images/259.jpg,410,Yang,001,2020-11-19_13h55.30.915,test3,2020.2.5,MacIntel,60
,,,,m,1.711,0,410,410,410,1,paints/images/210.jpg,paints/images/30.jpg,411,Yang,001,2020-11-19_13h55.30.915,test3,2020.2.5,MacIntel,60
