key_resp.keys,key_resp.rt,key_resp_3.keys,key_resp_3.rt,key_resp_2.keys,key_resp_2.rt,trials.thisRepN,trials.thisTrialN,trials.thisN,trials.thisIndex,trials.ran,image_left,image_right,trial_num,participant,session,date,expName,psychopyVersion,OS,frameRate,key_resp_5.keys,key_resp_5.rt,key_resp_4.keys,key_resp_4.rt,trials_2.thisRepN,trials_2.thisTrialN,trials_2.thisN,trials_2.thisIndex,trials_2.ran
space,16.895685,space,2.12836,m,1.99227,0,0,0,0,1,paints/images/344.jpg,paints/images/121.jpg,1,YF,1,2020-11-24_00h47.49.140,test3,2020.2.4,MacIntel,60,,,,,,,,,
,,,,z,2.90231,0,1,1,1,1,paints/images/369.jpg,paints/images/367.jpg,2,YF,1,2020-11-24_00h47.49.140,test3,2020.2.4,MacIntel,60,,,,,,,,,
,,,,m,4.658605,0,2,2,2,1,paints/images/385.jpg,paints/images/253.jpg,3,YF,1,2020-11-24_00h47.49.140,test3,2020.2.4,MacIntel,60,,,,,,,,,
,,,,m,2.24658,0,3,3,3,1,paints/images/230.jpg,paints/images/124.jpg,4,YF,1,2020-11-24_00h47.49.140,test3,2020.2.4,MacIntel,60,,,,,,,,,
,,,,z,8.95282,0,4,4,4,1,paints/images/284.jpg,paints/images/172.jpg,5,YF,1,2020-11-24_00h47.49.140,test3,2020.2.4,MacIntel,60,,,,,,,,,
,,,,z,1.64339,0,5,5,5,1,paints/images/325.jpg,paints/images/5.jpg,6,YF,1,2020-11-24_00h47.49.140,test3,2020.2.4,MacIntel,60,,,,,,,,,
,,,,m,1.374995,0,6,6,6,1,paints/images/2.jpg,paints/images/107.jpg,7,YF,1,2020-11-24_00h47.49.140,test3,2020.2.4,MacIntel,60,,,,,,,,,
,,,,m,1.674235,0,7,7,7,1,paints/images/330.jpg,paints/images/93.jpg,8,YF,1,2020-11-24_00h47.49.140,test3,2020.2.4,MacIntel,60,,,,,,,,,
,,,,m,12.74735,0,8,8,8,1,paints/images/197.jpg,paints/images/20.jpg,9,YF,1,2020-11-24_00h47.49.140,test3,2020.2.4,MacIntel,60,,,,,,,,,
,,,,m,2.420035,0,9,9,9,1,paints/images/233.jpg,paints/images/346.jpg,10,YF,1,2020-11-24_00h47.49.140,test3,2020.2.4,MacIntel,60,,,,,,,,,
,,,,m,1.6408,0,10,10,10,1,paints/images/289.jpg,paints/images/317.jpg,11,YF,1,2020-11-24_00h47.49.140,test3,2020.2.4,MacIntel,60,,,,,,,,,
,,,,m,1.32329,0,11,11,11,1,paints/images/189.jpg,paints/images/230.jpg,12,YF,1,2020-11-24_00h47.49.140,test3,2020.2.4,MacIntel,60,,,,,,,,,
,,,,m,3.675695,0,12,12,12,1,paints/images/28.jpg,paints/images/401.jpg,13,YF,1,2020-11-24_00h47.49.140,test3,2020.2.4,MacIntel,60,,,,,,,,,
,,,,m,3.322855,0,13,13,13,1,paints/images/183.jpg,paints/images/198.jpg,14,YF,1,2020-11-24_00h47.49.140,test3,2020.2.4,MacIntel,60,,,,,,,,,
,,,,z,1.07747,0,14,14,14,1,paints/images/223.jpg,paints/images/249.jpg,15,YF,1,2020-11-24_00h47.49.140,test3,2020.2.4,MacIntel,60,,,,,,,,,
,,,,m,7.92815,0,15,15,15,1,paints/images/331.jpg,paints/images/168.jpg,16,YF,1,2020-11-24_00h47.49.140,test3,2020.2.4,MacIntel,60,,,,,,,,,
,,,,z,1.437945,0,16,16,16,1,paints/images/129.jpg,paints/images/21.jpg,17,YF,1,2020-11-24_00h47.49.140,test3,2020.2.4,MacIntel,60,,,,,,,,,
,,,,z,2.38344,0,17,17,17,1,paints/images/250.jpg,paints/images/290.jpg,18,YF,1,2020-11-24_00h47.49.140,test3,2020.2.4,MacIntel,60,,,,,,,,,
,,,,m,1.09119,0,18,18,18,1,paints/images/342.jpg,paints/images/371.jpg,19,YF,1,2020-11-24_00h47.49.140,test3,2020.2.4,MacIntel,60,,,,,,,,,
,,,,m,3.92372,0,19,19,19,1,paints/images/312.jpg,paints/images/349.jpg,20,YF,1,2020-11-24_00h47.49.140,test3,2020.2.4,MacIntel,60,,,,,,,,,
,,,,z,2.183005,0,20,20,20,1,paints/images/44.jpg,paints/images/23.jpg,21,YF,1,2020-11-24_00h47.49.140,test3,2020.2.4,MacIntel,60,,,,,,,,,
,,,,z,3.26032,0,21,21,21,1,paints/images/209.jpg,paints/images/236.jpg,22,YF,1,2020-11-24_00h47.49.140,test3,2020.2.4,MacIntel,60,,,,,,,,,
,,,,z,7.610995,0,22,22,22,1,paints/images/314.jpg,paints/images/326.jpg,23,YF,1,2020-11-24_00h47.49.140,test3,2020.2.4,MacIntel,60,,,,,,,,,
,,,,z,1.593275,0,23,23,23,1,paints/images/374.jpg,paints/images/397.jpg,24,YF,1,2020-11-24_00h47.49.140,test3,2020.2.4,MacIntel,60,,,,,,,,,
,,,,z,1.522475,0,24,24,24,1,paints/images/355.jpg,paints/images/400.jpg,25,YF,1,2020-11-24_00h47.49.140,test3,2020.2.4,MacIntel,60,,,,,,,,,
,,,,z,1.589365,0,25,25,25,1,paints/images/346.jpg,paints/images/223.jpg,26,YF,1,2020-11-24_00h47.49.140,test3,2020.2.4,MacIntel,60,,,,,,,,,
,,,,m,1.308375,0,26,26,26,1,paints/images/292.jpg,paints/images/122.jpg,27,YF,1,2020-11-24_00h47.49.140,test3,2020.2.4,MacIntel,60,,,,,,,,,
,,,,m,1.80893,0,27,27,27,1,paints/images/81.jpg,paints/images/294.jpg,28,YF,1,2020-11-24_00h47.49.140,test3,2020.2.4,MacIntel,60,,,,,,,,,
,,,,z,2.14134,0,28,28,28,1,paints/images/359.jpg,paints/images/370.jpg,29,YF,1,2020-11-24_00h47.49.140,test3,2020.2.4,MacIntel,60,,,,,,,,,
,,,,z,2.933275,0,29,29,29,1,paints/images/88.jpg,paints/images/119.jpg,30,YF,1,2020-11-24_00h47.49.140,test3,2020.2.4,MacIntel,60,,,,,,,,,
,,,,z,1.955095,0,30,30,30,1,paints/images/178.jpg,paints/images/47.jpg,31,YF,1,2020-11-24_00h47.49.140,test3,2020.2.4,MacIntel,60,,,,,,,,,
,,,,z,9.4696,0,31,31,31,1,paints/images/139.jpg,paints/images/377.jpg,32,YF,1,2020-11-24_00h47.49.140,test3,2020.2.4,MacIntel,60,,,,,,,,,
,,,,z,2.563215,0,32,32,32,1,paints/images/142.jpg,paints/images/379.jpg,33,YF,1,2020-11-24_00h47.49.140,test3,2020.2.4,MacIntel,60,,,,,,,,,
,,,,m,1.46591,0,33,33,33,1,paints/images/366.jpg,paints/images/22.jpg,34,YF,1,2020-11-24_00h47.49.140,test3,2020.2.4,MacIntel,60,,,,,,,,,
,,,,m,2.059625,0,34,34,34,1,paints/images/277.jpg,paints/images/365.jpg,35,YF,1,2020-11-24_00h47.49.140,test3,2020.2.4,MacIntel,60,,,,,,,,,
,,,,z,3.960645,0,35,35,35,1,paints/images/406.jpg,paints/images/388.jpg,36,YF,1,2020-11-24_00h47.49.140,test3,2020.2.4,MacIntel,60,,,,,,,,,
,,,,m,2.371995,0,36,36,36,1,paints/images/389.jpg,paints/images/104.jpg,37,YF,1,2020-11-24_00h47.49.140,test3,2020.2.4,MacIntel,60,,,,,,,,,
,,,,m,1.720325,0,37,37,37,1,paints/images/20.jpg,paints/images/84.jpg,38,YF,1,2020-11-24_00h47.49.140,test3,2020.2.4,MacIntel,60,,,,,,,,,
,,,,z,3.274525,0,38,38,38,1,paints/images/169.jpg,paints/images/163.jpg,39,YF,1,2020-11-24_00h47.49.140,test3,2020.2.4,MacIntel,60,,,,,,,,,
,,,,m,1.83986,0,39,39,39,1,paints/images/58.jpg,paints/images/359.jpg,40,YF,1,2020-11-24_00h47.49.140,test3,2020.2.4,MacIntel,60,,,,,,,,,
,,,,z,2.47513,0,40,40,40,1,paints/images/376.jpg,paints/images/256.jpg,41,YF,1,2020-11-24_00h47.49.140,test3,2020.2.4,MacIntel,60,,,,,,,,,
,,,,m,5.50771,0,41,41,41,1,paints/images/33.jpg,paints/images/261.jpg,42,YF,1,2020-11-24_00h47.49.140,test3,2020.2.4,MacIntel,60,,,,,,,,,
,,,,m,1.37455,0,42,42,42,1,paints/images/294.jpg,paints/images/96.jpg,43,YF,1,2020-11-24_00h47.49.140,test3,2020.2.4,MacIntel,60,,,,,,,,,
,,,,z,1.373005,0,43,43,43,1,paints/images/269.jpg,paints/images/293.jpg,44,YF,1,2020-11-24_00h47.49.140,test3,2020.2.4,MacIntel,60,,,,,,,,,
,,,,m,1.373905,0,44,44,44,1,paints/images/199.jpg,paints/images/284.jpg,45,YF,1,2020-11-24_00h47.49.140,test3,2020.2.4,MacIntel,60,,,,,,,,,
,,,,m,8.01245,0,45,45,45,1,paints/images/255.jpg,paints/images/281.jpg,46,YF,1,2020-11-24_00h47.49.140,test3,2020.2.4,MacIntel,60,,,,,,,,,
,,,,z,3.46409,0,46,46,46,1,paints/images/382.jpg,paints/images/4.jpg,47,YF,1,2020-11-24_00h47.49.140,test3,2020.2.4,MacIntel,60,,,,,,,,,
,,,,z,2.982165,0,47,47,47,1,paints/images/111.jpg,paints/images/83.jpg,48,YF,1,2020-11-24_00h47.49.140,test3,2020.2.4,MacIntel,60,,,,,,,,,
,,,,z,4.251905,0,48,48,48,1,paints/images/239.jpg,paints/images/151.jpg,49,YF,1,2020-11-24_00h47.49.140,test3,2020.2.4,MacIntel,60,,,,,,,,,
,,,,z,5.48456,0,49,49,49,1,paints/images/84.jpg,paints/images/341.jpg,50,YF,1,2020-11-24_00h47.49.140,test3,2020.2.4,MacIntel,60,,,,,,,,,
,,,,m,1.98831,0,50,50,50,1,paints/images/317.jpg,paints/images/159.jpg,51,YF,1,2020-11-24_00h47.49.140,test3,2020.2.4,MacIntel,60,,,,,,,,,
,,,,z,3.345205,0,51,51,51,1,paints/images/153.jpg,paints/images/212.jpg,52,YF,1,2020-11-24_00h47.49.140,test3,2020.2.4,MacIntel,60,,,,,,,,,
,,,,z,10.079965,0,52,52,52,1,paints/images/5.jpg,paints/images/361.jpg,53,YF,1,2020-11-24_00h47.49.140,test3,2020.2.4,MacIntel,60,,,,,,,,,
,,,,m,7.112545,0,53,53,53,1,paints/images/319.jpg,paints/images/178.jpg,54,YF,1,2020-11-24_00h47.49.140,test3,2020.2.4,MacIntel,60,,,,,,,,,
,,,,z,2.92927,0,54,54,54,1,paints/images/118.jpg,paints/images/275.jpg,55,YF,1,2020-11-24_00h47.49.140,test3,2020.2.4,MacIntel,60,,,,,,,,,
,,,,z,3.478805,0,55,55,55,1,paints/images/213.jpg,paints/images/312.jpg,56,YF,1,2020-11-24_00h47.49.140,test3,2020.2.4,MacIntel,60,,,,,,,,,
,,,,m,1.66128,0,56,56,56,1,paints/images/4.jpg,paints/images/131.jpg,57,YF,1,2020-11-24_00h47.49.140,test3,2020.2.4,MacIntel,60,,,,,,,,,
,,,,z,1.41177,0,57,57,57,1,paints/images/206.jpg,paints/images/391.jpg,58,YF,1,2020-11-24_00h47.49.140,test3,2020.2.4,MacIntel,60,,,,,,,,,
,,,,m,1.191475,0,58,58,58,1,paints/images/349.jpg,paints/images/240.jpg,59,YF,1,2020-11-24_00h47.49.140,test3,2020.2.4,MacIntel,60,,,,,,,,,
,,,,z,1.374135,0,59,59,59,1,paints/images/174.jpg,paints/images/197.jpg,60,YF,1,2020-11-24_00h47.49.140,test3,2020.2.4,MacIntel,60,,,,,,,,,
,,,,z,1.139845,0,60,60,60,1,paints/images/93.jpg,paints/images/330.jpg,61,YF,1,2020-11-24_00h47.49.140,test3,2020.2.4,MacIntel,60,,,,,,,,,
,,,,z,8.145195,0,61,61,61,1,paints/images/262.jpg,paints/images/225.jpg,62,YF,1,2020-11-24_00h47.49.140,test3,2020.2.4,MacIntel,60,,,,,,,,,
,,,,z,3.833245,0,62,62,62,1,paints/images/322.jpg,paints/images/267.jpg,63,YF,1,2020-11-24_00h47.49.140,test3,2020.2.4,MacIntel,60,,,,,,,,,
,,,,z,2.46671,0,63,63,63,1,paints/images/104.jpg,paints/images/140.jpg,64,YF,1,2020-11-24_00h47.49.140,test3,2020.2.4,MacIntel,60,,,,,,,,,
,,,,m,1.48226,0,64,64,64,1,paints/images/400.jpg,paints/images/355.jpg,65,YF,1,2020-11-24_00h47.49.140,test3,2020.2.4,MacIntel,60,,,,,,,,,
,,,,z,1.979585,0,65,65,65,1,paints/images/89.jpg,paints/images/380.jpg,66,YF,1,2020-11-24_00h47.49.140,test3,2020.2.4,MacIntel,60,,,,,,,,,
,,,,m,4.51618,0,66,66,66,1,paints/images/181.jpg,paints/images/195.jpg,67,YF,1,2020-11-24_00h47.49.140,test3,2020.2.4,MacIntel,60,,,,,,,,,
,,,,m,7.292605,0,67,67,67,1,paints/images/130.jpg,paints/images/155.jpg,68,YF,1,2020-11-24_00h47.49.140,test3,2020.2.4,MacIntel,60,,,,,,,,,
,,,,m,3.58101,0,68,68,68,1,paints/images/15.jpg,paints/images/55.jpg,69,YF,1,2020-11-24_00h47.49.140,test3,2020.2.4,MacIntel,60,,,,,,,,,
,,,,m,4.181055,0,69,69,69,1,paints/images/393.jpg,paints/images/34.jpg,70,YF,1,2020-11-24_00h47.49.140,test3,2020.2.4,MacIntel,60,,,,,,,,,
,,,,m,4.2123,0,70,70,70,1,paints/images/192.jpg,paints/images/351.jpg,71,YF,1,2020-11-24_00h47.49.140,test3,2020.2.4,MacIntel,60,,,,,,,,,
,,,,m,7.61577,0,71,71,71,1,paints/images/57.jpg,paints/images/363.jpg,72,YF,1,2020-11-24_00h47.49.140,test3,2020.2.4,MacIntel,60,,,,,,,,,
,,,,z,1.99468,0,72,72,72,1,paints/images/243.jpg,paints/images/295.jpg,73,YF,1,2020-11-24_00h47.49.140,test3,2020.2.4,MacIntel,60,,,,,,,,,
,,,,m,1.493245,0,73,73,73,1,paints/images/196.jpg,paints/images/146.jpg,74,YF,1,2020-11-24_00h47.49.140,test3,2020.2.4,MacIntel,60,,,,,,,,,
,,,,m,4.27604,0,74,74,74,1,paints/images/367.jpg,paints/images/332.jpg,75,YF,1,2020-11-24_00h47.49.140,test3,2020.2.4,MacIntel,60,,,,,,,,,
,,,,m,1.210905,0,75,75,75,1,paints/images/249.jpg,paints/images/50.jpg,76,YF,1,2020-11-24_00h47.49.140,test3,2020.2.4,MacIntel,60,,,,,,,,,
,,,,m,2.40792,0,76,76,76,1,paints/images/100.jpg,paints/images/91.jpg,77,YF,1,2020-11-24_00h47.49.140,test3,2020.2.4,MacIntel,60,,,,,,,,,
,,,,z,4.84315,0,77,77,77,1,paints/images/301.jpg,paints/images/154.jpg,78,YF,1,2020-11-24_00h47.49.140,test3,2020.2.4,MacIntel,60,,,,,,,,,
,,,,z,5.482175,0,78,78,78,1,paints/images/13.jpg,paints/images/308.jpg,79,YF,1,2020-11-24_00h47.49.140,test3,2020.2.4,MacIntel,60,,,,,,,,,
,,,,m,2.09061,0,79,79,79,1,paints/images/11.jpg,paints/images/24.jpg,80,YF,1,2020-11-24_00h47.49.140,test3,2020.2.4,MacIntel,60,,,,,,,,,
,,,,m,1.46025,0,80,80,80,1,paints/images/27.jpg,paints/images/114.jpg,81,YF,1,2020-11-24_00h47.49.140,test3,2020.2.4,MacIntel,60,,,,,,,,,
,,,,z,2.259445,0,81,81,81,1,paints/images/334.jpg,paints/images/217.jpg,82,YF,1,2020-11-24_00h47.49.140,test3,2020.2.4,MacIntel,60,,,,,,,,,
,,,,m,1.238835,0,82,82,82,1,paints/images/340.jpg,paints/images/320.jpg,83,YF,1,2020-11-24_00h47.49.140,test3,2020.2.4,MacIntel,60,,,,,,,,,
,,,,m,6.477055,0,83,83,83,1,paints/images/204.jpg,paints/images/52.jpg,84,YF,1,2020-11-24_00h47.49.140,test3,2020.2.4,MacIntel,60,,,,,,,,,
,,,,m,1.49096,0,84,84,84,1,paints/images/266.jpg,paints/images/179.jpg,85,YF,1,2020-11-24_00h47.49.140,test3,2020.2.4,MacIntel,60,,,,,,,,,
,,,,m,2.59189,0,85,85,85,1,paints/images/309.jpg,paints/images/45.jpg,86,YF,1,2020-11-24_00h47.49.140,test3,2020.2.4,MacIntel,60,,,,,,,,,
,,,,z,5.55809,0,86,86,86,1,paints/images/48.jpg,paints/images/352.jpg,87,YF,1,2020-11-24_00h47.49.140,test3,2020.2.4,MacIntel,60,,,,,,,,,
,,,,z,1.377885,0,87,87,87,1,paints/images/238.jpg,paints/images/190.jpg,88,YF,1,2020-11-24_00h47.49.140,test3,2020.2.4,MacIntel,60,,,,,,,,,
,,,,z,2.926805,0,88,88,88,1,paints/images/216.jpg,paints/images/207.jpg,89,YF,1,2020-11-24_00h47.49.140,test3,2020.2.4,MacIntel,60,,,,,,,,,
,,,,z,3.613275,0,89,89,89,1,paints/images/228.jpg,paints/images/315.jpg,90,YF,1,2020-11-24_00h47.49.140,test3,2020.2.4,MacIntel,60,,,,,,,,,
,,,,z,3.375655,0,90,90,90,1,paints/images/368.jpg,paints/images/221.jpg,91,YF,1,2020-11-24_00h47.49.140,test3,2020.2.4,MacIntel,60,,,,,,,,,
,,,,m,1.373015,0,91,91,91,1,paints/images/402.jpg,paints/images/257.jpg,92,YF,1,2020-11-24_00h47.49.140,test3,2020.2.4,MacIntel,60,,,,,,,,,
,,,,z,1.34091,0,92,92,92,1,paints/images/248.jpg,paints/images/296.jpg,93,YF,1,2020-11-24_00h47.49.140,test3,2020.2.4,MacIntel,60,,,,,,,,,
,,,,z,6.10881,0,93,93,93,1,paints/images/234.jpg,paints/images/174.jpg,94,YF,1,2020-11-24_00h47.49.140,test3,2020.2.4,MacIntel,60,,,,,,,,,
,,,,m,9.97827,0,94,94,94,1,paints/images/149.jpg,paints/images/204.jpg,95,YF,1,2020-11-24_00h47.49.140,test3,2020.2.4,MacIntel,60,,,,,,,,,
,,,,m,3.73471,0,95,95,95,1,paints/images/56.jpg,paints/images/117.jpg,96,YF,1,2020-11-24_00h47.49.140,test3,2020.2.4,MacIntel,60,,,,,,,,,
,,,,z,1.127915,0,96,96,96,1,paints/images/146.jpg,paints/images/287.jpg,97,YF,1,2020-11-24_00h47.49.140,test3,2020.2.4,MacIntel,60,,,,,,,,,
,,,,z,1.244015,0,97,97,97,1,paints/images/221.jpg,paints/images/62.jpg,98,YF,1,2020-11-24_00h47.49.140,test3,2020.2.4,MacIntel,60,,,,,,,,,
,,,,m,1.53834,0,98,98,98,1,paints/images/110.jpg,paints/images/321.jpg,99,YF,1,2020-11-24_00h47.49.140,test3,2020.2.4,MacIntel,60,,,,,,,,,
,,,,m,3.546485,0,99,99,99,1,paints/images/67.jpg,paints/images/384.jpg,100,YF,1,2020-11-24_00h47.49.140,test3,2020.2.4,MacIntel,60,,,,,,,,,
,,,,m,1.072255,0,100,100,100,1,paints/images/356.jpg,paints/images/137.jpg,101,YF,1,2020-11-24_00h47.49.140,test3,2020.2.4,MacIntel,60,,,,,,,,,
,,,,z,3.24355,0,101,101,101,1,paints/images/274.jpg,paints/images/232.jpg,102,YF,1,2020-11-24_00h47.49.140,test3,2020.2.4,MacIntel,60,,,,,,,,,
,,,,m,2.190275,0,102,102,102,1,paints/images/70.jpg,paints/images/183.jpg,103,YF,1,2020-11-24_00h47.49.140,test3,2020.2.4,MacIntel,60,,,,,,,,,
,,,,z,1.736285,0,103,103,103,1,paints/images/10.jpg,paints/images/393.jpg,104,YF,1,2020-11-24_00h47.49.140,test3,2020.2.4,MacIntel,60,,,,,,,,,
,,,,z,1.482825,0,104,104,104,1,paints/images/378.jpg,paints/images/181.jpg,105,YF,1,2020-11-24_00h47.49.140,test3,2020.2.4,MacIntel,60,,,,,,,,,
,,,,z,2.466245,0,105,105,105,1,paints/images/303.jpg,paints/images/334.jpg,106,YF,1,2020-11-24_00h47.49.140,test3,2020.2.4,MacIntel,60,,,,,,,,,
,,,,m,2.55924,0,106,106,106,1,paints/images/328.jpg,paints/images/344.jpg,107,YF,1,2020-11-24_00h47.49.140,test3,2020.2.4,MacIntel,60,,,,,,,,,
,,,,m,3.62313,0,107,107,107,1,paints/images/397.jpg,paints/images/318.jpg,108,YF,1,2020-11-24_00h47.49.140,test3,2020.2.4,MacIntel,60,,,,,,,,,
,,,,m,3.45703,0,108,108,108,1,paints/images/365.jpg,paints/images/211.jpg,109,YF,1,2020-11-24_00h47.49.140,test3,2020.2.4,MacIntel,60,,,,,,,,,
,,,,m,1.5908,0,109,109,109,1,paints/images/23.jpg,paints/images/46.jpg,110,YF,1,2020-11-24_00h47.49.140,test3,2020.2.4,MacIntel,60,,,,,,,,,
,,,,m,3.839555,0,110,110,110,1,paints/images/304.jpg,paints/images/11.jpg,111,YF,1,2020-11-24_00h47.49.140,test3,2020.2.4,MacIntel,60,,,,,,,,,
,,,,m,2.47308,0,111,111,111,1,paints/images/226.jpg,paints/images/6.jpg,112,YF,1,2020-11-24_00h47.49.140,test3,2020.2.4,MacIntel,60,,,,,,,,,
,,,,m,1.35611,0,112,112,112,1,paints/images/170.jpg,paints/images/262.jpg,113,YF,1,2020-11-24_00h47.49.140,test3,2020.2.4,MacIntel,60,,,,,,,,,
,,,,z,6.16544,0,113,113,113,1,paints/images/259.jpg,paints/images/343.jpg,114,YF,1,2020-11-24_00h47.49.140,test3,2020.2.4,MacIntel,60,,,,,,,,,
,,,,z,1.87391,0,114,114,114,1,paints/images/19.jpg,paints/images/394.jpg,115,YF,1,2020-11-24_00h47.49.140,test3,2020.2.4,MacIntel,60,,,,,,,,,
,,,,m,8.777195,0,115,115,115,1,paints/images/215.jpg,paints/images/19.jpg,116,YF,1,2020-11-24_00h47.49.140,test3,2020.2.4,MacIntel,60,,,,,,,,,
,,,,z,2.924935,0,116,116,116,1,paints/images/52.jpg,paints/images/360.jpg,117,YF,1,2020-11-24_00h47.49.140,test3,2020.2.4,MacIntel,60,,,,,,,,,
,,,,z,1.55834,0,117,117,117,1,paints/images/99.jpg,paints/images/328.jpg,118,YF,1,2020-11-24_00h47.49.140,test3,2020.2.4,MacIntel,60,,,,,,,,,
,,,,z,2.587435,0,118,118,118,1,paints/images/150.jpg,paints/images/164.jpg,119,YF,1,2020-11-24_00h47.49.140,test3,2020.2.4,MacIntel,60,,,,,,,,,
,,,,m,1.5278,0,119,119,119,1,paints/images/172.jpg,paints/images/213.jpg,120,YF,1,2020-11-24_00h47.49.140,test3,2020.2.4,MacIntel,60,,,,,,,,,
,,,,m,1.879655,0,120,120,120,1,paints/images/50.jpg,paints/images/101.jpg,121,YF,1,2020-11-24_00h47.49.140,test3,2020.2.4,MacIntel,60,,,,,,,,,
,,,,z,1.913175,0,121,121,121,1,paints/images/358.jpg,paints/images/354.jpg,122,YF,1,2020-11-24_00h47.49.140,test3,2020.2.4,MacIntel,60,,,,,,,,,
,,,,z,1.356305,0,122,122,122,1,paints/images/257.jpg,paints/images/265.jpg,123,YF,1,2020-11-24_00h47.49.140,test3,2020.2.4,MacIntel,60,,,,,,,,,
,,,,m,1.932625,0,123,123,123,1,paints/images/91.jpg,paints/images/342.jpg,124,YF,1,2020-11-24_00h47.49.140,test3,2020.2.4,MacIntel,60,,,,,,,,,
,,,,z,1.970475,0,124,124,124,1,paints/images/168.jpg,paints/images/132.jpg,125,YF,1,2020-11-24_00h47.49.140,test3,2020.2.4,MacIntel,60,,,,,,,,,
,,,,z,2.192425,0,125,125,125,1,paints/images/280.jpg,paints/images/98.jpg,126,YF,1,2020-11-24_00h47.49.140,test3,2020.2.4,MacIntel,60,,,,,,,,,
,,,,m,1.29081,0,126,126,126,1,paints/images/261.jpg,paints/images/40.jpg,127,YF,1,2020-11-24_00h47.49.140,test3,2020.2.4,MacIntel,60,,,,,,,,,
,,,,m,2.32425,0,127,127,127,1,paints/images/333.jpg,paints/images/66.jpg,128,YF,1,2020-11-24_00h47.49.140,test3,2020.2.4,MacIntel,60,,,,,,,,,
,,,,m,1.55355,0,128,128,128,1,paints/images/96.jpg,paints/images/82.jpg,129,YF,1,2020-11-24_00h47.49.140,test3,2020.2.4,MacIntel,60,,,,,,,,,
,,,,m,2.12025,0,129,129,129,1,paints/images/32.jpg,paints/images/325.jpg,130,YF,1,2020-11-24_00h47.49.140,test3,2020.2.4,MacIntel,60,,,,,,,,,
,,,,m,2.166585,0,130,130,130,1,paints/images/268.jpg,paints/images/167.jpg,131,YF,1,2020-11-24_00h47.49.140,test3,2020.2.4,MacIntel,60,,,,,,,,,
,,,,z,2.409515,0,131,131,131,1,paints/images/162.jpg,paints/images/25.jpg,132,YF,1,2020-11-24_00h47.49.140,test3,2020.2.4,MacIntel,60,,,,,,,,,
,,,,m,1.132235,0,132,132,132,1,paints/images/53.jpg,paints/images/305.jpg,133,YF,1,2020-11-24_00h47.49.140,test3,2020.2.4,MacIntel,60,,,,,,,,,
,,,,z,1.13072,0,133,133,133,1,paints/images/263.jpg,paints/images/209.jpg,134,YF,1,2020-11-24_00h47.49.140,test3,2020.2.4,MacIntel,60,,,,,,,,,
,,,,m,2.59384,0,134,134,134,1,paints/images/92.jpg,paints/images/364.jpg,135,YF,1,2020-11-24_00h47.49.140,test3,2020.2.4,MacIntel,60,,,,,,,,,
,,,,z,1.690425,0,135,135,135,1,paints/images/61.jpg,paints/images/291.jpg,136,YF,1,2020-11-24_00h47.49.140,test3,2020.2.4,MacIntel,60,,,,,,,,,
,,,,z,5.074645,0,136,136,136,1,paints/images/293.jpg,paints/images/283.jpg,137,YF,1,2020-11-24_00h47.49.140,test3,2020.2.4,MacIntel,60,,,,,,,,,
,,,,z,1.42623,0,137,137,137,1,paints/images/229.jpg,paints/images/173.jpg,138,YF,1,2020-11-24_00h47.49.140,test3,2020.2.4,MacIntel,60,,,,,,,,,
,,,,z,3.14037,0,138,138,138,1,paints/images/41.jpg,paints/images/133.jpg,139,YF,1,2020-11-24_00h47.49.140,test3,2020.2.4,MacIntel,60,,,,,,,,,
,,,,m,1.256605,0,139,139,139,1,paints/images/182.jpg,paints/images/348.jpg,140,YF,1,2020-11-24_00h47.49.140,test3,2020.2.4,MacIntel,60,,,,,,,,,
,,,,m,2.322225,0,140,140,140,1,paints/images/379.jpg,paints/images/228.jpg,141,YF,1,2020-11-24_00h47.49.140,test3,2020.2.4,MacIntel,60,,,,,,,,,
,,,,m,1.24041,0,141,141,141,1,paints/images/188.jpg,paints/images/13.jpg,142,YF,1,2020-11-24_00h47.49.140,test3,2020.2.4,MacIntel,60,,,,,,,,,
,,,,z,2.302495,0,142,142,142,1,paints/images/40.jpg,paints/images/329.jpg,143,YF,1,2020-11-24_00h47.49.140,test3,2020.2.4,MacIntel,60,,,,,,,,,
,,,,z,2.156665,0,143,143,143,1,paints/images/323.jpg,paints/images/165.jpg,144,YF,1,2020-11-24_00h47.49.140,test3,2020.2.4,MacIntel,60,,,,,,,,,
,,,,m,2.433645,0,144,144,144,1,paints/images/78.jpg,paints/images/407.jpg,145,YF,1,2020-11-24_00h47.49.140,test3,2020.2.4,MacIntel,60,,,,,,,,,
,,,,z,2.807995,0,145,145,145,1,paints/images/242.jpg,paints/images/75.jpg,146,YF,1,2020-11-24_00h47.49.140,test3,2020.2.4,MacIntel,60,,,,,,,,,
,,,,m,2.00783,0,146,146,146,1,paints/images/62.jpg,paints/images/187.jpg,147,YF,1,2020-11-24_00h47.49.140,test3,2020.2.4,MacIntel,60,,,,,,,,,
,,,,z,1.870595,0,147,147,147,1,paints/images/131.jpg,paints/images/285.jpg,148,YF,1,2020-11-24_00h47.49.140,test3,2020.2.4,MacIntel,60,,,,,,,,,
,,,,z,9.163365,0,148,148,148,1,paints/images/241.jpg,paints/images/97.jpg,149,YF,1,2020-11-24_00h47.49.140,test3,2020.2.4,MacIntel,60,,,,,,,,,
,,,,z,2.62847,0,149,149,149,1,paints/images/132.jpg,paints/images/289.jpg,150,YF,1,2020-11-24_00h47.49.140,test3,2020.2.4,MacIntel,60,,,,,,,,,
,,,,z,9.49608,0,150,150,150,1,paints/images/185.jpg,paints/images/54.jpg,151,YF,1,2020-11-24_00h47.49.140,test3,2020.2.4,MacIntel,60,,,,,,,,,
,,,,m,1.141725,0,151,151,151,1,paints/images/272.jpg,paints/images/51.jpg,152,YF,1,2020-11-24_00h47.49.140,test3,2020.2.4,MacIntel,60,,,,,,,,,
,,,,z,1.88721,0,152,152,152,1,paints/images/403.jpg,paints/images/71.jpg,153,YF,1,2020-11-24_00h47.49.140,test3,2020.2.4,MacIntel,60,,,,,,,,,
,,,,m,1.10399,0,153,153,153,1,paints/images/202.jpg,paints/images/219.jpg,154,YF,1,2020-11-24_00h47.49.140,test3,2020.2.4,MacIntel,60,,,,,,,,,
,,,,m,3.323975,0,154,154,154,1,paints/images/34.jpg,paints/images/271.jpg,155,YF,1,2020-11-24_00h47.49.140,test3,2020.2.4,MacIntel,60,,,,,,,,,
,,,,z,3.37988,0,155,155,155,1,paints/images/296.jpg,paints/images/90.jpg,156,YF,1,2020-11-24_00h47.49.140,test3,2020.2.4,MacIntel,60,,,,,,,,,
,,,,m,1.23975,0,156,156,156,1,paints/images/25.jpg,paints/images/338.jpg,157,YF,1,2020-11-24_00h47.49.140,test3,2020.2.4,MacIntel,60,,,,,,,,,
,,,,m,4.49242,0,157,157,157,1,paints/images/396.jpg,paints/images/78.jpg,158,YF,1,2020-11-24_00h47.49.140,test3,2020.2.4,MacIntel,60,,,,,,,,,
,,,,z,3.69,0,158,158,158,1,paints/images/72.jpg,paints/images/111.jpg,159,YF,1,2020-11-24_00h47.49.140,test3,2020.2.4,MacIntel,60,,,,,,,,,
,,,,z,2.27361,0,159,159,159,1,paints/images/164.jpg,paints/images/16.jpg,160,YF,1,2020-11-24_00h47.49.140,test3,2020.2.4,MacIntel,60,,,,,,,,,
,,,,z,1.89059,0,160,160,160,1,paints/images/387.jpg,paints/images/244.jpg,161,YF,1,2020-11-24_00h47.49.140,test3,2020.2.4,MacIntel,60,,,,,,,,,
,,,,z,3.163445,0,161,161,161,1,paints/images/64.jpg,paints/images/260.jpg,162,YF,1,2020-11-24_00h47.49.140,test3,2020.2.4,MacIntel,60,,,,,,,,,
,,,,z,2.073585,0,162,162,162,1,paints/images/160.jpg,paints/images/63.jpg,163,YF,1,2020-11-24_00h47.49.140,test3,2020.2.4,MacIntel,60,,,,,,,,,
,,,,m,2.3371,0,163,163,163,1,paints/images/3.jpg,paints/images/282.jpg,164,YF,1,2020-11-24_00h47.49.140,test3,2020.2.4,MacIntel,60,,,,,,,,,
,,,,z,1.19239,0,164,164,164,1,paints/images/307.jpg,paints/images/152.jpg,165,YF,1,2020-11-24_00h47.49.140,test3,2020.2.4,MacIntel,60,,,,,,,,,
,,,,z,2.413985,0,165,165,165,1,paints/images/311.jpg,paints/images/123.jpg,166,YF,1,2020-11-24_00h47.49.140,test3,2020.2.4,MacIntel,60,,,,,,,,,
,,,,z,1.624005,0,166,166,166,1,paints/images/143.jpg,paints/images/286.jpg,167,YF,1,2020-11-24_00h47.49.140,test3,2020.2.4,MacIntel,60,,,,,,,,,
,,,,m,1.61085,0,167,167,167,1,paints/images/97.jpg,paints/images/216.jpg,168,YF,1,2020-11-24_00h47.49.140,test3,2020.2.4,MacIntel,60,,,,,,,,,
,,,,m,4.3574,0,168,168,168,1,paints/images/395.jpg,paints/images/170.jpg,169,YF,1,2020-11-24_00h47.49.140,test3,2020.2.4,MacIntel,60,,,,,,,,,
,,,,z,3.28979,0,169,169,169,1,paints/images/151.jpg,paints/images/26.jpg,170,YF,1,2020-11-24_00h47.49.140,test3,2020.2.4,MacIntel,60,,,,,,,,,
,,,,z,2.90311,0,170,170,170,1,paints/images/51.jpg,paints/images/32.jpg,171,YF,1,2020-11-24_00h47.49.140,test3,2020.2.4,MacIntel,60,,,,,,,,,
,,,,m,1.426035,0,171,171,171,1,paints/images/305.jpg,paints/images/176.jpg,172,YF,1,2020-11-24_00h47.49.140,test3,2020.2.4,MacIntel,60,,,,,,,,,
,,,,z,2.437715,0,172,172,172,1,paints/images/137.jpg,paints/images/48.jpg,173,YF,1,2020-11-24_00h47.49.140,test3,2020.2.4,MacIntel,60,,,,,,,,,
,,,,z,1.74456,0,173,173,173,1,paints/images/65.jpg,paints/images/243.jpg,174,YF,1,2020-11-24_00h47.49.140,test3,2020.2.4,MacIntel,60,,,,,,,,,
,,,,m,1.570865,0,174,174,174,1,paints/images/115.jpg,paints/images/210.jpg,175,YF,1,2020-11-24_00h47.49.140,test3,2020.2.4,MacIntel,60,,,,,,,,,
,,,,z,4.47313,0,175,175,175,1,paints/images/310.jpg,paints/images/58.jpg,176,YF,1,2020-11-24_00h47.49.140,test3,2020.2.4,MacIntel,60,,,,,,,,,
,,,,z,3.697155,0,176,176,176,1,paints/images/1.jpg,paints/images/112.jpg,177,YF,1,2020-11-24_00h47.49.140,test3,2020.2.4,MacIntel,60,,,,,,,,,
,,,,z,1.973555,0,177,177,177,1,paints/images/125.jpg,paints/images/17.jpg,178,YF,1,2020-11-24_00h47.49.140,test3,2020.2.4,MacIntel,60,,,,,,,,,
,,,,z,4.698725,0,178,178,178,1,paints/images/279.jpg,paints/images/166.jpg,179,YF,1,2020-11-24_00h47.49.140,test3,2020.2.4,MacIntel,60,,,,,,,,,
,,,,m,1.88919,0,179,179,179,1,paints/images/316.jpg,paints/images/306.jpg,180,YF,1,2020-11-24_00h47.49.140,test3,2020.2.4,MacIntel,60,,,,,,,,,
,,,,z,1.9435,0,180,180,180,1,paints/images/22.jpg,paints/images/214.jpg,181,YF,1,2020-11-24_00h47.49.140,test3,2020.2.4,MacIntel,60,,,,,,,,,
,,,,m,1.177505,0,181,181,181,1,paints/images/54.jpg,paints/images/235.jpg,182,YF,1,2020-11-24_00h47.49.140,test3,2020.2.4,MacIntel,60,,,,,,,,,
,,,,m,1.681375,0,182,182,182,1,paints/images/225.jpg,paints/images/160.jpg,183,YF,1,2020-11-24_00h47.49.140,test3,2020.2.4,MacIntel,60,,,,,,,,,
,,,,m,2.285875,0,183,183,183,1,paints/images/339.jpg,paints/images/59.jpg,184,YF,1,2020-11-24_00h47.49.140,test3,2020.2.4,MacIntel,60,,,,,,,,,
,,,,z,3.3868,0,184,184,184,1,paints/images/409.jpg,paints/images/180.jpg,185,YF,1,2020-11-24_00h47.49.140,test3,2020.2.4,MacIntel,60,,,,,,,,,
,,,,m,3.473595,0,185,185,185,1,paints/images/145.jpg,paints/images/115.jpg,186,YF,1,2020-11-24_00h47.49.140,test3,2020.2.4,MacIntel,60,,,,,,,,,
,,,,m,2.22307,0,186,186,186,1,paints/images/147.jpg,paints/images/37.jpg,187,YF,1,2020-11-24_00h47.49.140,test3,2020.2.4,MacIntel,60,,,,,,,,,
,,,,m,1.848455,0,187,187,187,1,paints/images/288.jpg,paints/images/64.jpg,188,YF,1,2020-11-24_00h47.49.140,test3,2020.2.4,MacIntel,60,,,,,,,,,
,,,,z,5.127715,0,188,188,188,1,paints/images/235.jpg,paints/images/201.jpg,189,YF,1,2020-11-24_00h47.49.140,test3,2020.2.4,MacIntel,60,,,,,,,,,
,,,,z,1.39913,0,189,189,189,1,paints/images/313.jpg,paints/images/2.jpg,190,YF,1,2020-11-24_00h47.49.140,test3,2020.2.4,MacIntel,60,,,,,,,,,
,,,,m,2.652135,0,190,190,190,1,paints/images/329.jpg,paints/images/38.jpg,191,YF,1,2020-11-24_00h47.49.140,test3,2020.2.4,MacIntel,60,,,,,,,,,
,,,,m,1.99392,0,191,191,191,1,paints/images/9.jpg,paints/images/241.jpg,192,YF,1,2020-11-24_00h47.49.140,test3,2020.2.4,MacIntel,60,,,,,,,,,
,,,,z,2.524005,0,192,192,192,1,paints/images/364.jpg,paints/images/44.jpg,193,YF,1,2020-11-24_00h47.49.140,test3,2020.2.4,MacIntel,60,,,,,,,,,
,,,,z,5.03526,0,193,193,193,1,paints/images/14.jpg,paints/images/109.jpg,194,YF,1,2020-11-24_00h47.49.140,test3,2020.2.4,MacIntel,60,,,,,,,,,
,,,,m,1.25014,0,194,194,194,1,paints/images/0.jpg,paints/images/14.jpg,195,YF,1,2020-11-24_00h47.49.140,test3,2020.2.4,MacIntel,60,,,,,,,,,
,,,,m,2.07996,0,195,195,195,1,paints/images/398.jpg,paints/images/247.jpg,196,YF,1,2020-11-24_00h47.49.140,test3,2020.2.4,MacIntel,60,,,,,,,,,
,,,,m,2.23472,0,196,196,196,1,paints/images/377.jpg,paints/images/237.jpg,197,YF,1,2020-11-24_00h47.49.140,test3,2020.2.4,MacIntel,60,,,,,,,,,
,,,,z,1.23942,0,197,197,197,1,paints/images/246.jpg,paints/images/184.jpg,198,YF,1,2020-11-24_00h47.49.140,test3,2020.2.4,MacIntel,60,,,,,,,,,
,,,,m,2.912675,0,198,198,198,1,paints/images/299.jpg,paints/images/301.jpg,199,YF,1,2020-11-24_00h47.49.140,test3,2020.2.4,MacIntel,60,,,,,,,,,
,,,,m,1.157075,0,199,199,199,1,paints/images/116.jpg,paints/images/148.jpg,200,YF,1,2020-11-24_00h47.49.140,test3,2020.2.4,MacIntel,60,,,,,,,,,
,,,,z,11.07508,,,,,,paints/images/267.jpg,paints/images/336.jpg,1,YF,1,2020-11-24_00h47.49.140,test3,2020.2.4,MacIntel,60,space,9.382275,m,7.41994,0,0,0,0,1
,,,,m,5.57627,,,,,,paints/images/6.jpg,paints/images/182.jpg,2,YF,1,2020-11-24_00h47.49.140,test3,2020.2.4,MacIntel,60,,,m,0.1519,0,1,1,1,1
,,,,m,1.48724,,,,,,paints/images/348.jpg,paints/images/105.jpg,3,YF,1,2020-11-24_00h47.49.140,test3,2020.2.4,MacIntel,60,,,m,0.17124,0,2,2,2,1
,,,,z,2.398645,,,,,,paints/images/404.jpg,paints/images/372.jpg,4,YF,1,2020-11-24_00h47.49.140,test3,2020.2.4,MacIntel,60,,,m,0.11741,0,3,3,3,1
,,,,z,2.41868,,,,,,paints/images/324.jpg,paints/images/134.jpg,5,YF,1,2020-11-24_00h47.49.140,test3,2020.2.4,MacIntel,60,,,m,0.15512,0,4,4,4,1
,,,,z,2.593025,,,,,,paints/images/278.jpg,paints/images/269.jpg,6,YF,1,2020-11-24_00h47.49.140,test3,2020.2.4,MacIntel,60,,,m,0.341195,0,5,5,5,1
,,,,m,1.741445,,,,,,paints/images/237.jpg,paints/images/375.jpg,7,YF,1,2020-11-24_00h47.49.140,test3,2020.2.4,MacIntel,60,,,m,0.202895,0,6,6,6,1
,,,,m,1.796395,,,,,,paints/images/109.jpg,paints/images/224.jpg,8,YF,1,2020-11-24_00h47.49.140,test3,2020.2.4,MacIntel,60,,,m,0.12334,0,7,7,7,1
,,,,m,6.97765,,,,,,paints/images/318.jpg,paints/images/127.jpg,9,YF,1,2020-11-24_00h47.49.140,test3,2020.2.4,MacIntel,60,,,m,0.14332,0,8,8,8,1
,,,,z,2.93275,,,,,,paints/images/120.jpg,paints/images/254.jpg,10,YF,1,2020-11-24_00h47.49.140,test3,2020.2.4,MacIntel,60,,,m,0.745295,0,9,9,9,1
,,,,z,3.29092,,,,,,paints/images/86.jpg,paints/images/67.jpg,11,YF,1,2020-11-24_00h47.49.140,test3,2020.2.4,MacIntel,60,,,m,0.1756,0,10,10,10,1
,,,,z,2.89739,,,,,,paints/images/302.jpg,paints/images/245.jpg,12,YF,1,2020-11-24_00h47.49.140,test3,2020.2.4,MacIntel,60,,,m,0.205955,0,11,11,11,1
,,,,m,1.657255,,,,,,paints/images/94.jpg,paints/images/242.jpg,13,YF,1,2020-11-24_00h47.49.140,test3,2020.2.4,MacIntel,60,,,m,0.526785,0,12,12,12,1
,,,,m,2.57649,,,,,,paints/images/295.jpg,paints/images/72.jpg,14,YF,1,2020-11-24_00h47.49.140,test3,2020.2.4,MacIntel,60,,,m,0.174905,0,13,13,13,1
,,,,m,1.70791,,,,,,paints/images/227.jpg,paints/images/175.jpg,15,YF,1,2020-11-24_00h47.49.140,test3,2020.2.4,MacIntel,60,,,m,0.12253,0,14,14,14,1
,,,,m,5.481515,,,,,,paints/images/26.jpg,paints/images/203.jpg,16,YF,1,2020-11-24_00h47.49.140,test3,2020.2.4,MacIntel,60,,,m,0.16659,0,15,15,15,1
,,,,z,1.27173,,,,,,paints/images/45.jpg,paints/images/272.jpg,17,YF,1,2020-11-24_00h47.49.140,test3,2020.2.4,MacIntel,60,,,m,0.16001,0,16,16,16,1
,,,,z,1.47633,,,,,,paints/images/410.jpg,paints/images/185.jpg,18,YF,1,2020-11-24_00h47.49.140,test3,2020.2.4,MacIntel,60,,,m,0.139315,0,17,17,17,1
,,,,z,3.58983,,,,,,paints/images/380.jpg,paints/images/0.jpg,19,YF,1,2020-11-24_00h47.49.140,test3,2020.2.4,MacIntel,60,,,m,0.20113,0,18,18,18,1
,,,,m,2.155265,,,,,,paints/images/370.jpg,paints/images/106.jpg,20,YF,1,2020-11-24_00h47.49.140,test3,2020.2.4,MacIntel,60,,,m,0.19247,0,19,19,19,1
,,,,m,1.521825,,,,,,paints/images/102.jpg,paints/images/309.jpg,21,YF,1,2020-11-24_00h47.49.140,test3,2020.2.4,MacIntel,60,,,m,0.123215,0,20,20,20,1
,,,,m,4.172815,,,,,,paints/images/167.jpg,paints/images/299.jpg,22,YF,1,2020-11-24_00h47.49.140,test3,2020.2.4,MacIntel,60,,,m,0.184055,0,21,21,21,1
,,,,z,1.879835,,,,,,paints/images/290.jpg,paints/images/192.jpg,23,YF,1,2020-11-24_00h47.49.140,test3,2020.2.4,MacIntel,60,,,m,0.14598,0,22,22,22,1
,,,,m,1.413835,,,,,,paints/images/82.jpg,paints/images/353.jpg,24,YF,1,2020-11-24_00h47.49.140,test3,2020.2.4,MacIntel,60,,,m,0.155375,0,23,23,23,1
,,,,m,1.492005,,,,,,paints/images/75.jpg,paints/images/404.jpg,25,YF,1,2020-11-24_00h47.49.140,test3,2020.2.4,MacIntel,60,,,m,0.175155,0,24,24,24,1
,,,,z,1.639365,,,,,,paints/images/117.jpg,paints/images/100.jpg,26,YF,1,2020-11-24_00h47.49.140,test3,2020.2.4,MacIntel,60,,,m,0.190195,0,25,25,25,1
,,,,m,1.608045,,,,,,paints/images/200.jpg,paints/images/378.jpg,27,YF,1,2020-11-24_00h47.49.140,test3,2020.2.4,MacIntel,60,,,m,0.12675,0,26,26,26,1
,,,,m,4.95986,,,,,,paints/images/371.jpg,paints/images/57.jpg,28,YF,1,2020-11-24_00h47.49.140,test3,2020.2.4,MacIntel,60,,,m,0.155325,0,27,27,27,1
,,,,m,1.42214,,,,,,paints/images/87.jpg,paints/images/302.jpg,29,YF,1,2020-11-24_00h47.49.140,test3,2020.2.4,MacIntel,60,,,m,0.15849,0,28,28,28,1
,,,,z,1.495695,,,,,,paints/images/208.jpg,paints/images/39.jpg,30,YF,1,2020-11-24_00h47.49.140,test3,2020.2.4,MacIntel,60,,,m,0.171335,0,29,29,29,1
,,,,m,5.56623,,,,,,paints/images/198.jpg,paints/images/200.jpg,31,YF,1,2020-11-24_00h47.49.140,test3,2020.2.4,MacIntel,60,,,m,0.139795,0,30,30,30,1
,,,,m,7.06512,,,,,,paints/images/43.jpg,paints/images/42.jpg,32,YF,1,2020-11-24_00h47.49.140,test3,2020.2.4,MacIntel,60,,,m,0.15694,0,31,31,31,1
,,,,m,1.68918,,,,,,paints/images/286.jpg,paints/images/376.jpg,33,YF,1,2020-11-24_00h47.49.140,test3,2020.2.4,MacIntel,60,,,m,0.16137,0,32,32,32,1
,,,,m,1.43309,,,,,,paints/images/275.jpg,paints/images/76.jpg,34,YF,1,2020-11-24_00h47.49.140,test3,2020.2.4,MacIntel,60,,,m,0.174425,0,33,33,33,1
,,,,z,1.1803,,,,,,paints/images/138.jpg,paints/images/129.jpg,35,YF,1,2020-11-24_00h47.49.140,test3,2020.2.4,MacIntel,60,,,m,0.15203,0,34,34,34,1
,,,,m,2.62202,,,,,,paints/images/386.jpg,paints/images/366.jpg,36,YF,1,2020-11-24_00h47.49.140,test3,2020.2.4,MacIntel,60,,,m,0.15882,0,35,35,35,1
,,,,m,1.738395,,,,,,paints/images/232.jpg,paints/images/215.jpg,37,YF,1,2020-11-24_00h47.49.140,test3,2020.2.4,MacIntel,60,,,m,0.184205,0,36,36,36,1
,,,,z,1.251065,,,,,,paints/images/122.jpg,paints/images/199.jpg,38,YF,1,2020-11-24_00h47.49.140,test3,2020.2.4,MacIntel,60,,,m,0.19171,0,37,37,37,1
,,,,m,1.344555,,,,,,paints/images/388.jpg,paints/images/169.jpg,39,YF,1,2020-11-24_00h47.49.140,test3,2020.2.4,MacIntel,60,,,m,0.156105,0,38,38,38,1
,,,,z,4.7618,,,,,,paints/images/399.jpg,paints/images/229.jpg,40,YF,1,2020-11-24_00h47.49.140,test3,2020.2.4,MacIntel,60,,,m,0.15582,0,39,39,39,1
,,,,m,1.925625,,,,,,paints/images/300.jpg,paints/images/1.jpg,41,YF,1,2020-11-24_00h47.49.140,test3,2020.2.4,MacIntel,60,,,m,0.17612,0,40,40,40,1
,,,,m,2.241245,,,,,,paints/images/195.jpg,paints/images/399.jpg,42,YF,1,2020-11-24_00h47.49.140,test3,2020.2.4,MacIntel,60,,,m,0.17562,0,41,41,41,1
,,,,m,5.41467,,,,,,paints/images/281.jpg,paints/images/277.jpg,43,YF,1,2020-11-24_00h47.49.140,test3,2020.2.4,MacIntel,60,,,m,0.146205,0,42,42,42,1
,,,,z,11.381735,,,,,,paints/images/103.jpg,paints/images/288.jpg,44,YF,1,2020-11-24_00h47.49.140,test3,2020.2.4,MacIntel,60,,,m,0.16946,0,43,43,43,1
,,,,m,3.20845,,,,,,paints/images/297.jpg,paints/images/222.jpg,45,YF,1,2020-11-24_00h47.49.140,test3,2020.2.4,MacIntel,60,,,m,0.17011,0,44,44,44,1
,,,,z,2.29079,,,,,,paints/images/394.jpg,paints/images/258.jpg,46,YF,1,2020-11-24_00h47.49.140,test3,2020.2.4,MacIntel,60,,,m,0.140175,0,45,45,45,1
,,,,m,1.47835,,,,,,paints/images/73.jpg,paints/images/49.jpg,47,YF,1,2020-11-24_00h47.49.140,test3,2020.2.4,MacIntel,60,,,m,0.15676,0,46,46,46,1
,,,,m,2.969735,,,,,,paints/images/112.jpg,paints/images/80.jpg,48,YF,1,2020-11-24_00h47.49.140,test3,2020.2.4,MacIntel,60,,,m,0.1753,0,47,47,47,1
,,,,m,1.538035,,,,,,paints/images/245.jpg,paints/images/358.jpg,49,YF,1,2020-11-24_00h47.49.140,test3,2020.2.4,MacIntel,60,,,m,0.176705,0,48,48,48,1
,,,,m,1.033445,,,,,,paints/images/347.jpg,paints/images/143.jpg,50,YF,1,2020-11-24_00h47.49.140,test3,2020.2.4,MacIntel,60,,,m,0.157255,0,49,49,49,1
,,,,z,3.47236,,,,,,paints/images/352.jpg,paints/images/145.jpg,51,YF,1,2020-11-24_00h47.49.140,test3,2020.2.4,MacIntel,60,,,m,0.158485,0,50,50,50,1
,,,,z,3.01193,,,,,,paints/images/69.jpg,paints/images/162.jpg,52,YF,1,2020-11-24_00h47.49.140,test3,2020.2.4,MacIntel,60,,,m,0.17219,0,51,51,51,1
,,,,z,5.460655,,,,,,paints/images/381.jpg,paints/images/202.jpg,53,YF,1,2020-11-24_00h47.49.140,test3,2020.2.4,MacIntel,60,,,m,0.141095,0,52,52,52,1
,,,,m,2.291845,,,,,,paints/images/361.jpg,paints/images/340.jpg,54,YF,1,2020-11-24_00h47.49.140,test3,2020.2.4,MacIntel,60,,,m,0.2375,0,53,53,53,1
,,,,m,2.103665,,,,,,paints/images/217.jpg,paints/images/9.jpg,55,YF,1,2020-11-24_00h47.49.140,test3,2020.2.4,MacIntel,60,,,m,0.146415,0,54,54,54,1
,,,,m,1.390305,,,,,,paints/images/8.jpg,paints/images/409.jpg,56,YF,1,2020-11-24_00h47.49.140,test3,2020.2.4,MacIntel,60,,,m,0.17228,0,55,55,55,1
,,,,m,5.358325,,,,,,paints/images/59.jpg,paints/images/33.jpg,57,YF,1,2020-11-24_00h47.49.140,test3,2020.2.4,MacIntel,60,,,m,0.15032,0,56,56,56,1
,,,,m,1.332555,,,,,,paints/images/21.jpg,paints/images/311.jpg,58,YF,1,2020-11-24_00h47.49.140,test3,2020.2.4,MacIntel,60,,,m,0.18832,0,57,57,57,1
,,,,z,3.157835,,,,,,paints/images/408.jpg,paints/images/31.jpg,59,YF,1,2020-11-24_00h47.49.140,test3,2020.2.4,MacIntel,60,,,m,0.140335,0,58,58,58,1
,,,,z,2.724115,,,,,,paints/images/98.jpg,paints/images/3.jpg,60,YF,1,2020-11-24_00h47.49.140,test3,2020.2.4,MacIntel,60,,,m,0.230225,0,59,59,59,1
,,,,m,1.243655,,,,,,paints/images/336.jpg,paints/images/138.jpg,61,YF,1,2020-11-24_00h47.49.140,test3,2020.2.4,MacIntel,60,,,m,0.177255,0,60,60,60,1
,,,,z,2.239635,,,,,,paints/images/186.jpg,paints/images/395.jpg,62,YF,1,2020-11-24_00h47.49.140,test3,2020.2.4,MacIntel,60,,,m,0.150715,0,61,61,61,1
,,,,m,1.28313,,,,,,paints/images/76.jpg,paints/images/405.jpg,63,YF,1,2020-11-24_00h47.49.140,test3,2020.2.4,MacIntel,60,,,m,0.19216,0,62,62,62,1
,,,,z,2.03055,,,,,,paints/images/171.jpg,paints/images/381.jpg,64,YF,1,2020-11-24_00h47.49.140,test3,2020.2.4,MacIntel,60,,,m,0.202155,0,63,63,63,1
,,,,m,2.343385,,,,,,paints/images/220.jpg,paints/images/70.jpg,65,YF,1,2020-11-24_00h47.49.140,test3,2020.2.4,MacIntel,60,,,m,0.177205,0,64,64,64,1
,,,,z,1.90963,,,,,,paints/images/337.jpg,paints/images/339.jpg,66,YF,1,2020-11-24_00h47.49.140,test3,2020.2.4,MacIntel,60,,,m,0.17124,0,65,65,65,1
,,,,m,1.24007,,,,,,paints/images/258.jpg,paints/images/85.jpg,67,YF,1,2020-11-24_00h47.49.140,test3,2020.2.4,MacIntel,60,,,m,0.17627,0,66,66,66,1
,,,,z,2.309345,,,,,,paints/images/273.jpg,paints/images/113.jpg,68,YF,1,2020-11-24_00h47.49.140,test3,2020.2.4,MacIntel,60,,,m,0.179765,0,67,67,67,1
,,,,z,2.422955,,,,,,paints/images/353.jpg,paints/images/368.jpg,69,YF,1,2020-11-24_00h47.49.140,test3,2020.2.4,MacIntel,60,,,m,0.207265,0,68,68,68,1
,,,,z,1.54889,,,,,,paints/images/187.jpg,paints/images/86.jpg,70,YF,1,2020-11-24_00h47.49.140,test3,2020.2.4,MacIntel,60,,,m,0.17173,0,69,69,69,1
,,,,m,5.140595,,,,,,paints/images/176.jpg,paints/images/193.jpg,71,YF,1,2020-11-24_00h47.49.140,test3,2020.2.4,MacIntel,60,,,m,0.192515,0,70,70,70,1
,,,,z,1.136425,,,,,,paints/images/175.jpg,paints/images/194.jpg,72,YF,1,2020-11-24_00h47.49.140,test3,2020.2.4,MacIntel,60,,,m,0.20461,0,71,71,71,1
,,,,z,2.715205,,,,,,paints/images/407.jpg,paints/images/81.jpg,73,YF,1,2020-11-24_00h47.49.140,test3,2020.2.4,MacIntel,60,,,m,0.171785,0,72,72,72,1
,,,,z,4.69183,,,,,,paints/images/276.jpg,paints/images/77.jpg,74,YF,1,2020-11-24_00h47.49.140,test3,2020.2.4,MacIntel,60,,,m,0.183915,0,73,73,73,1
,,,,m,1.207775,,,,,,paints/images/291.jpg,paints/images/314.jpg,75,YF,1,2020-11-24_00h47.49.140,test3,2020.2.4,MacIntel,60,,,m,0.15996,0,74,74,74,1
,,,,z,5.4258,,,,,,paints/images/127.jpg,paints/images/36.jpg,76,YF,1,2020-11-24_00h47.49.140,test3,2020.2.4,MacIntel,60,,,m,0.18892,0,75,75,75,1
,,,,m,1.436805,,,,,,paints/images/372.jpg,paints/images/161.jpg,77,YF,1,2020-11-24_00h47.49.140,test3,2020.2.4,MacIntel,60,,,m,0.17419,0,76,76,76,1
,,,,m,1.275905,,,,,,paints/images/283.jpg,paints/images/350.jpg,78,YF,1,2020-11-24_00h47.49.140,test3,2020.2.4,MacIntel,60,,,m,0.17642,0,77,77,77,1
,,,,z,2.189465,,,,,,paints/images/106.jpg,paints/images/68.jpg,79,YF,1,2020-11-24_00h47.49.140,test3,2020.2.4,MacIntel,60,,,m,0.188405,0,78,78,78,1
,,,,z,3.819915,,,,,,paints/images/224.jpg,paints/images/266.jpg,80,YF,1,2020-11-24_00h47.49.140,test3,2020.2.4,MacIntel,60,,,m,0.348805,0,79,79,79,1
,,,,z,3.630075,,,,,,paints/images/375.jpg,paints/images/264.jpg,81,YF,1,2020-11-24_00h47.49.140,test3,2020.2.4,MacIntel,60,,,m,0.18995,0,80,80,80,1
,,,,z,1.626005,,,,,,paints/images/47.jpg,paints/images/87.jpg,82,YF,1,2020-11-24_00h47.49.140,test3,2020.2.4,MacIntel,60,,,m,0.189805,0,81,81,81,1
,,,,m,5.862435,,,,,,paints/images/38.jpg,paints/images/298.jpg,83,YF,1,2020-11-24_00h47.49.140,test3,2020.2.4,MacIntel,60,,,m,0.170195,0,82,82,82,1
,,,,m,1.73677,,,,,,paints/images/161.jpg,paints/images/28.jpg,84,YF,1,2020-11-24_00h47.49.140,test3,2020.2.4,MacIntel,60,,,m,0.19649,0,83,83,83,1
,,,,m,6.392355,,,,,,paints/images/298.jpg,paints/images/345.jpg,85,YF,1,2020-11-24_00h47.49.140,test3,2020.2.4,MacIntel,60,,,m,0.22155,0,84,84,84,1
,,,,z,2.84603,,,,,,paints/images/163.jpg,paints/images/205.jpg,86,YF,1,2020-11-24_00h47.49.140,test3,2020.2.4,MacIntel,60,,,m,0.18968,0,85,85,85,1
,,,,m,0.054675,,,,,,paints/images/121.jpg,paints/images/252.jpg,87,YF,1,2020-11-24_00h47.49.140,test3,2020.2.4,MacIntel,60,,,m,0.209865,0,86,86,86,1
,,,,m,9.11252,,,,,,paints/images/247.jpg,paints/images/95.jpg,88,YF,1,2020-11-24_00h47.49.140,test3,2020.2.4,MacIntel,60,,,m,0.18215,0,87,87,87,1
,,,,z,2.94082,,,,,,paints/images/321.jpg,paints/images/150.jpg,89,YF,1,2020-11-24_00h47.49.140,test3,2020.2.4,MacIntel,60,,,m,0.188305,0,88,88,88,1
,,,,z,3.932815,,,,,,paints/images/46.jpg,paints/images/226.jpg,90,YF,1,2020-11-24_00h47.49.140,test3,2020.2.4,MacIntel,60,,,m,0.200315,0,89,89,89,1
,,,,m,1.34337,,,,,,paints/images/154.jpg,paints/images/263.jpg,91,YF,1,2020-11-24_00h47.49.140,test3,2020.2.4,MacIntel,60,,,m,0.188655,0,90,90,90,1
,,,,z,1.8909,,,,,,paints/images/191.jpg,paints/images/158.jpg,92,YF,1,2020-11-24_00h47.49.140,test3,2020.2.4,MacIntel,60,,,m,0.18742,0,91,91,91,1
,,,,z,2.65861,,,,,,paints/images/49.jpg,paints/images/227.jpg,93,YF,1,2020-11-24_00h47.49.140,test3,2020.2.4,MacIntel,60,,,m,0.17051,0,92,92,92,1
,,,,z,2.35944,,,,,,paints/images/124.jpg,paints/images/89.jpg,94,YF,1,2020-11-24_00h47.49.140,test3,2020.2.4,MacIntel,60,,,m,0.18718,0,93,93,93,1
,,,,z,1.78954,,,,,,paints/images/390.jpg,paints/images/43.jpg,95,YF,1,2020-11-24_00h47.49.140,test3,2020.2.4,MacIntel,60,,,m,0.18986,0,94,94,94,1
,,,,m,3.080795,,,,,,paints/images/42.jpg,paints/images/268.jpg,96,YF,1,2020-11-24_00h47.49.140,test3,2020.2.4,MacIntel,60,,,m,0.213135,0,95,95,95,1
,,,,m,4.728445,,,,,,paints/images/113.jpg,paints/images/386.jpg,97,YF,1,2020-11-24_00h47.49.140,test3,2020.2.4,MacIntel,60,,,m,0.24132,0,96,96,96,1
,,,,m,1.23371,,,,,,paints/images/287.jpg,paints/images/307.jpg,98,YF,1,2020-11-24_00h47.49.140,test3,2020.2.4,MacIntel,60,,,m,0.1884,0,97,97,97,1
,,,,z,1.873995,,,,,,paints/images/134.jpg,paints/images/300.jpg,99,YF,1,2020-11-24_00h47.49.140,test3,2020.2.4,MacIntel,60,,,m,0.15683,0,98,98,98,1
,,,,m,1.14236,,,,,,paints/images/60.jpg,paints/images/206.jpg,100,YF,1,2020-11-24_00h47.49.140,test3,2020.2.4,MacIntel,60,,,m,0.19277,0,99,99,99,1
,,,,m,2.154345,,,,,,paints/images/384.jpg,paints/images/335.jpg,101,YF,1,2020-11-24_00h47.49.140,test3,2020.2.4,MacIntel,60,,,m,0.205555,0,100,100,100,1
,,,,z,1.04074,,,,,,paints/images/326.jpg,paints/images/139.jpg,102,YF,1,2020-11-24_00h47.49.140,test3,2020.2.4,MacIntel,60,,,m,0.211605,0,101,101,101,1
,,,,m,1.821875,,,,,,paints/images/166.jpg,paints/images/374.jpg,103,YF,1,2020-11-24_00h47.49.140,test3,2020.2.4,MacIntel,60,,,m,0.188055,0,102,102,102,1
,,,,z,4.09691,,,,,,paints/images/360.jpg,paints/images/10.jpg,104,YF,1,2020-11-24_00h47.49.140,test3,2020.2.4,MacIntel,60,,,m,0.173565,0,103,103,103,1
,,,,z,4.356675,,,,,,paints/images/158.jpg,paints/images/149.jpg,105,YF,1,2020-11-24_00h47.49.140,test3,2020.2.4,MacIntel,60,,,m,0.20805,0,104,104,104,1
,,,,m,2.255885,,,,,,paints/images/159.jpg,paints/images/362.jpg,106,YF,1,2020-11-24_00h47.49.140,test3,2020.2.4,MacIntel,60,,,m,0.173025,0,105,105,105,1
,,,,m,2.5716,,,,,,paints/images/214.jpg,paints/images/116.jpg,107,YF,1,2020-11-24_00h47.49.140,test3,2020.2.4,MacIntel,60,,,m,0.21297,0,106,106,106,1
,,,,z,1.975765,,,,,,paints/images/256.jpg,paints/images/323.jpg,108,YF,1,2020-11-24_00h47.49.140,test3,2020.2.4,MacIntel,60,,,m,0.18814,0,107,107,107,1
,,,,m,2.856635,,,,,,paints/images/36.jpg,paints/images/157.jpg,109,YF,1,2020-11-24_00h47.49.140,test3,2020.2.4,MacIntel,60,,,m,0.213175,0,108,108,108,1
,,,,m,5.47284,,,,,,paints/images/101.jpg,paints/images/126.jpg,110,YF,1,2020-11-24_00h47.49.140,test3,2020.2.4,MacIntel,60,,,m,0.18893,0,109,109,109,1
,,,,m,11.58693,,,,,,paints/images/265.jpg,paints/images/35.jpg,111,YF,1,2020-11-24_00h47.49.140,test3,2020.2.4,MacIntel,60,,,m,0.20503,0,110,110,110,1
,,,,z,1.71337,,,,,,paints/images/392.jpg,paints/images/233.jpg,112,YF,1,2020-11-24_00h47.49.140,test3,2020.2.4,MacIntel,60,,,m,0.20476,0,111,111,111,1
,,,,m,16.33617,,,,,,paints/images/251.jpg,paints/images/12.jpg,113,YF,1,2020-11-24_00h47.49.140,test3,2020.2.4,MacIntel,60,,,m,0.15127,0,112,112,112,1
,,,,m,2.340875,,,,,,paints/images/12.jpg,paints/images/144.jpg,114,YF,1,2020-11-24_00h47.49.140,test3,2020.2.4,MacIntel,60,,,m,0.183755,0,113,113,113,1
,,,,m,1.17092,,,,,,paints/images/133.jpg,paints/images/331.jpg,115,YF,1,2020-11-24_00h47.49.140,test3,2020.2.4,MacIntel,60,,,m,0.16974,0,114,114,114,1
,,,,z,2.439335,,,,,,paints/images/383.jpg,paints/images/99.jpg,116,YF,1,2020-11-24_00h47.49.140,test3,2020.2.4,MacIntel,60,,,m,0.181895,0,115,115,115,1
,,,,m,3.01355,,,,,,paints/images/211.jpg,paints/images/303.jpg,117,YF,1,2020-11-24_00h47.49.140,test3,2020.2.4,MacIntel,60,,,m,0.202385,0,116,116,116,1
,,,,m,1.103765,,,,,,paints/images/201.jpg,paints/images/238.jpg,118,YF,1,2020-11-24_00h47.49.140,test3,2020.2.4,MacIntel,60,,,m,0.18903,0,117,117,117,1
,,,,m,2.22262,,,,,,paints/images/205.jpg,paints/images/102.jpg,119,YF,1,2020-11-24_00h47.49.140,test3,2020.2.4,MacIntel,60,,,m,0.16424,0,118,118,118,1
,,,,m,4.045235,,,,,,paints/images/270.jpg,paints/images/322.jpg,120,YF,1,2020-11-24_00h47.49.140,test3,2020.2.4,MacIntel,60,,,m,0.1723,0,119,119,119,1
,,,,m,1.15589,,,,,,paints/images/341.jpg,paints/images/248.jpg,121,YF,1,2020-11-24_00h47.49.140,test3,2020.2.4,MacIntel,60,,,m,0.16664,0,120,120,120,1
,,,,z,1.671055,,,,,,paints/images/141.jpg,paints/images/94.jpg,122,YF,1,2020-11-24_00h47.49.140,test3,2020.2.4,MacIntel,60,,,m,0.19162,0,121,121,121,1
,,,,m,1.12283,,,,,,paints/images/83.jpg,paints/images/327.jpg,123,YF,1,2020-11-24_00h47.49.140,test3,2020.2.4,MacIntel,60,,,m,0.15386,0,122,122,122,1
,,,,z,8.078715,,,,,,paints/images/327.jpg,paints/images/110.jpg,124,YF,1,2020-11-24_00h47.49.140,test3,2020.2.4,MacIntel,60,,,m,0.193555,0,123,123,123,1
,,,,m,1.65763,,,,,,paints/images/157.jpg,paints/images/79.jpg,125,YF,1,2020-11-24_00h47.49.140,test3,2020.2.4,MacIntel,60,,,m,0.17504,0,124,124,124,1
,,,,z,2.89649,,,,,,paints/images/193.jpg,paints/images/74.jpg,126,YF,1,2020-11-24_00h47.49.140,test3,2020.2.4,MacIntel,60,,,m,0.19214,0,125,125,125,1
,,,,m,2.028185,,,,,,paints/images/140.jpg,paints/images/292.jpg,127,YF,1,2020-11-24_00h47.49.140,test3,2020.2.4,MacIntel,60,,,m,0.171945,0,126,126,126,1
,,,,z,2.402485,,,,,,paints/images/107.jpg,paints/images/92.jpg,128,YF,1,2020-11-24_00h47.49.140,test3,2020.2.4,MacIntel,60,,,m,0.199785,0,127,127,127,1
,,,,m,2.41356,,,,,,paints/images/7.jpg,paints/images/56.jpg,129,YF,1,2020-11-24_00h47.49.140,test3,2020.2.4,MacIntel,60,,,m,0.18726,0,128,128,128,1
,,,,z,1.22898,,,,,,paints/images/177.jpg,paints/images/141.jpg,130,YF,1,2020-11-24_00h47.49.140,test3,2020.2.4,MacIntel,60,,,m,0.150535,0,129,129,129,1
,,,,m,1.417955,,,,,,paints/images/244.jpg,paints/images/250.jpg,131,YF,1,2020-11-24_00h47.49.140,test3,2020.2.4,MacIntel,60,,,m,0.17196,0,130,130,130,1
,,,,z,2.82962,,,,,,paints/images/253.jpg,paints/images/8.jpg,132,YF,1,2020-11-24_00h47.49.140,test3,2020.2.4,MacIntel,60,,,m,0.187255,0,131,131,131,1
,,,,z,1.192865,,,,,,paints/images/136.jpg,paints/images/108.jpg,133,YF,1,2020-11-24_00h47.49.140,test3,2020.2.4,MacIntel,60,,,m,0.19312,0,132,132,132,1
,,,,z,2.95683,,,,,,paints/images/165.jpg,paints/images/147.jpg,134,YF,1,2020-11-24_00h47.49.140,test3,2020.2.4,MacIntel,60,,,m,0.17648,0,133,133,133,1
,,,,z,1.260155,,,,,,paints/images/39.jpg,paints/images/387.jpg,135,YF,1,2020-11-24_00h47.49.140,test3,2020.2.4,MacIntel,60,,,m,0.22702,0,134,134,134,1
,,,,m,1.23849,,,,,,paints/images/271.jpg,paints/images/125.jpg,136,YF,1,2020-11-24_00h47.49.140,test3,2020.2.4,MacIntel,60,,,m,0.191305,0,135,135,135,1
,,,,z,1.68863,,,,,,paints/images/90.jpg,paints/images/130.jpg,137,YF,1,2020-11-24_00h47.49.140,test3,2020.2.4,MacIntel,60,,,m,0.18589,0,136,136,136,1
,,,,z,1.070485,,,,,,paints/images/362.jpg,paints/images/60.jpg,138,YF,1,2020-11-24_00h47.49.140,test3,2020.2.4,MacIntel,60,,,m,0.197775,0,137,137,137,1
,,,,m,2.642045,,,,,,paints/images/218.jpg,paints/images/153.jpg,139,YF,1,2020-11-24_00h47.49.140,test3,2020.2.4,MacIntel,60,,,m,0.176715,0,138,138,138,1
,,,,m,1.097255,,,,,,paints/images/18.jpg,paints/images/324.jpg,140,YF,1,2020-11-24_00h47.49.140,test3,2020.2.4,MacIntel,60,,,m,0.19405,0,139,139,139,1
,,,,z,2.30644,,,,,,paints/images/29.jpg,paints/images/120.jpg,141,YF,1,2020-11-24_00h47.49.140,test3,2020.2.4,MacIntel,60,,,m,0.185795,0,140,140,140,1
,,,,m,1.090105,,,,,,paints/images/155.jpg,paints/images/142.jpg,142,YF,1,2020-11-24_00h47.49.140,test3,2020.2.4,MacIntel,60,,,m,0.207545,0,141,141,141,1
,,,,z,2.526215,,,,,,paints/images/148.jpg,paints/images/396.jpg,143,YF,1,2020-11-24_00h47.49.140,test3,2020.2.4,MacIntel,60,,,m,0.19694,0,142,142,142,1
,,,,z,2.263525,,,,,,paints/images/373.jpg,paints/images/218.jpg,144,YF,1,2020-11-24_00h47.49.140,test3,2020.2.4,MacIntel,60,,,m,0.19664,0,143,143,143,1
,,,,z,5.027965,,,,,,paints/images/231.jpg,paints/images/73.jpg,145,YF,1,2020-11-24_00h47.49.140,test3,2020.2.4,MacIntel,60,,,m,0.23727,0,144,144,144,1
,,,,z,1.340605,,,,,,paints/images/240.jpg,paints/images/356.jpg,146,YF,1,2020-11-24_00h47.49.140,test3,2020.2.4,MacIntel,60,,,m,0.203535,0,145,145,145,1
,,,,z,2.371125,,,,,,paints/images/332.jpg,paints/images/347.jpg,147,YF,1,2020-11-24_00h47.49.140,test3,2020.2.4,MacIntel,60,,,m,0.164595,0,146,146,146,1
,,,,m,1.02857,,,,,,paints/images/254.jpg,paints/images/310.jpg,148,YF,1,2020-11-24_00h47.49.140,test3,2020.2.4,MacIntel,60,,,m,0.25844,0,147,147,147,1
,,,,z,1.17658,,,,,,paints/images/405.jpg,paints/images/385.jpg,149,YF,1,2020-11-24_00h47.49.140,test3,2020.2.4,MacIntel,60,,,m,0.195955,0,148,148,148,1
,,,,m,1.277345,,,,,,paints/images/345.jpg,paints/images/274.jpg,150,YF,1,2020-11-24_00h47.49.140,test3,2020.2.4,MacIntel,60,,,m,0.29575,0,149,149,149,1
,,,,m,3.313655,,,,,,paints/images/363.jpg,paints/images/18.jpg,151,YF,1,2020-11-24_00h47.49.140,test3,2020.2.4,MacIntel,60,,,m,0.21346,0,150,150,150,1
,,,,m,1.764795,,,,,,paints/images/37.jpg,paints/images/53.jpg,152,YF,1,2020-11-24_00h47.49.140,test3,2020.2.4,MacIntel,60,,,m,0.171625,0,151,151,151,1
,,,,m,3.29139,,,,,,paints/images/315.jpg,paints/images/319.jpg,153,YF,1,2020-11-24_00h47.49.140,test3,2020.2.4,MacIntel,60,,,m,0.15282,0,152,152,152,1
,,,,m,2.140245,,,,,,paints/images/74.jpg,paints/images/403.jpg,154,YF,1,2020-11-24_00h47.49.140,test3,2020.2.4,MacIntel,60,,,m,0.17523,0,153,153,153,1
,,,,m,1.32874,,,,,,paints/images/156.jpg,paints/images/246.jpg,155,YF,1,2020-11-24_00h47.49.140,test3,2020.2.4,MacIntel,60,,,m,0.18652,0,154,154,154,1
,,,,m,3.16736,,,,,,paints/images/285.jpg,paints/images/270.jpg,156,YF,1,2020-11-24_00h47.49.140,test3,2020.2.4,MacIntel,60,,,m,0.18083,0,155,155,155,1
,,,,z,3.088155,,,,,,paints/images/17.jpg,paints/images/398.jpg,157,YF,1,2020-11-24_00h47.49.140,test3,2020.2.4,MacIntel,60,,,m,0.22397,0,156,156,156,1
,,,,z,1.20846,,,,,,paints/images/335.jpg,paints/images/27.jpg,158,YF,1,2020-11-24_00h47.49.140,test3,2020.2.4,MacIntel,60,,,m,0.16976,0,157,157,157,1
,,,,z,5.952195,,,,,,paints/images/350.jpg,paints/images/156.jpg,159,YF,1,2020-11-24_00h47.49.140,test3,2020.2.4,MacIntel,60,,,m,0.17283,0,158,158,158,1
,,,,z,2.173895,,,,,,paints/images/31.jpg,paints/images/231.jpg,160,YF,1,2020-11-24_00h47.49.140,test3,2020.2.4,MacIntel,60,,,m,0.23235,0,159,159,159,1
,,,,z,1.786845,,,,,,paints/images/114.jpg,paints/images/333.jpg,161,YF,1,2020-11-24_00h47.49.140,test3,2020.2.4,MacIntel,60,,,m,0.15362,0,160,160,160,1
,,,,z,1.45948,,,,,,paints/images/79.jpg,paints/images/408.jpg,162,YF,1,2020-11-24_00h47.49.140,test3,2020.2.4,MacIntel,60,,,m,0.169965,0,161,161,161,1
,,,,z,1.111245,,,,,,paints/images/338.jpg,paints/images/279.jpg,163,YF,1,2020-11-24_00h47.49.140,test3,2020.2.4,MacIntel,60,,,m,0.18016,0,162,162,162,1
,,,,z,5.3645,,,,,,paints/images/354.jpg,paints/images/304.jpg,164,YF,1,2020-11-24_00h47.49.140,test3,2020.2.4,MacIntel,60,,,m,0.197945,0,163,163,163,1
,,,,m,2.028905,,,,,,paints/images/128.jpg,paints/images/276.jpg,165,YF,1,2020-11-24_00h47.49.140,test3,2020.2.4,MacIntel,60,,,m,0.18907,0,164,164,164,1
,,,,m,2.189505,,,,,,paints/images/35.jpg,paints/images/188.jpg,166,YF,1,2020-11-24_00h47.49.140,test3,2020.2.4,MacIntel,60,,,m,0.1872,0,165,165,165,1
,,,,m,1.121765,,,,,,paints/images/16.jpg,paints/images/29.jpg,167,YF,1,2020-11-24_00h47.49.140,test3,2020.2.4,MacIntel,60,,,m,0.180365,0,166,166,166,1
,,,,z,2.089915,,,,,,paints/images/119.jpg,paints/images/251.jpg,168,YF,1,2020-11-24_00h47.49.140,test3,2020.2.4,MacIntel,60,,,m,0.195925,0,167,167,167,1
,,,,m,1.11054,,,,,,paints/images/207.jpg,paints/images/65.jpg,169,YF,1,2020-11-24_00h47.49.140,test3,2020.2.4,MacIntel,60,,,m,0.23761,0,168,168,168,1
,,,,m,2.138275,,,,,,paints/images/173.jpg,paints/images/373.jpg,170,YF,1,2020-11-24_00h47.49.140,test3,2020.2.4,MacIntel,60,,,m,0.187645,0,169,169,169,1
,,,,z,2.9575,,,,,,paints/images/135.jpg,paints/images/196.jpg,171,YF,1,2020-11-24_00h47.49.140,test3,2020.2.4,MacIntel,60,,,m,0.191565,0,170,170,170,1
,,,,z,3.049665,,,,,,paints/images/55.jpg,paints/images/316.jpg,172,YF,1,2020-11-24_00h47.49.140,test3,2020.2.4,MacIntel,60,,,m,0.17432,0,171,171,171,1
,,,,m,2.528,,,,,,paints/images/343.jpg,paints/images/383.jpg,173,YF,1,2020-11-24_00h47.49.140,test3,2020.2.4,MacIntel,60,,,m,0.18675,0,172,172,172,1
,,,,m,1.355255,,,,,,paints/images/203.jpg,paints/images/186.jpg,174,YF,1,2020-11-24_00h47.49.140,test3,2020.2.4,MacIntel,60,,,m,0.186575,0,173,173,173,1
,,,,m,4.153035,,,,,,paints/images/123.jpg,paints/images/128.jpg,175,YF,1,2020-11-24_00h47.49.140,test3,2020.2.4,MacIntel,60,,,m,0.17237,0,174,174,174,1
,,,,m,2.352585,,,,,,paints/images/391.jpg,paints/images/208.jpg,176,YF,1,2020-11-24_00h47.49.140,test3,2020.2.4,MacIntel,60,,,m,0.21624,0,175,175,175,1
,,,,m,10.262165,,,,,,paints/images/105.jpg,paints/images/313.jpg,177,YF,1,2020-11-24_00h47.49.140,test3,2020.2.4,MacIntel,60,,,m,0.19088,0,176,176,176,1
,,,,m,5.408275,,,,,,paints/images/184.jpg,paints/images/69.jpg,178,YF,1,2020-11-24_00h47.49.140,test3,2020.2.4,MacIntel,60,,,m,0.17083,0,177,177,177,1
,,,,m,1.005825,,,,,,paints/images/63.jpg,paints/images/191.jpg,179,YF,1,2020-11-24_00h47.49.140,test3,2020.2.4,MacIntel,60,,,m,0.183715,0,178,178,178,1
,,,,z,1.489145,,,,,,paints/images/85.jpg,paints/images/390.jpg,180,YF,1,2020-11-24_00h47.49.140,test3,2020.2.4,MacIntel,60,,,m,0.19797,0,179,179,179,1
,,,,m,1.486585,,,,,,paints/images/179.jpg,paints/images/177.jpg,181,YF,1,2020-11-24_00h47.49.140,test3,2020.2.4,MacIntel,60,,,m,0.20565,0,180,180,180,1
,,,,m,2.739565,,,,,,paints/images/320.jpg,paints/images/171.jpg,182,YF,1,2020-11-24_00h47.49.140,test3,2020.2.4,MacIntel,60,,,m,0.209595,0,181,181,181,1
,,,,m,1.93681,,,,,,paints/images/77.jpg,paints/images/406.jpg,183,YF,1,2020-11-24_00h47.49.140,test3,2020.2.4,MacIntel,60,,,m,0.21322,0,182,182,182,1
,,,,z,4.258455,,,,,,paints/images/66.jpg,paints/images/255.jpg,184,YF,1,2020-11-24_00h47.49.140,test3,2020.2.4,MacIntel,60,,,m,0.199395,0,183,183,183,1
,,,,z,2.09479,,,,,,paints/images/308.jpg,paints/images/41.jpg,185,YF,1,2020-11-24_00h47.49.140,test3,2020.2.4,MacIntel,60,,,m,0.194785,0,184,184,184,1
,,,,z,2.02274,,,,,,paints/images/260.jpg,paints/images/297.jpg,186,YF,1,2020-11-24_00h47.49.140,test3,2020.2.4,MacIntel,60,,,m,0.21986,0,185,185,185,1
,,,,m,6.63051,,,,,,paints/images/126.jpg,paints/images/273.jpg,187,YF,1,2020-11-24_00h47.49.140,test3,2020.2.4,MacIntel,60,,,m,0.186485,0,186,186,186,1
,,,,m,1.404185,,,,,,paints/images/68.jpg,paints/images/189.jpg,188,YF,1,2020-11-24_00h47.49.140,test3,2020.2.4,MacIntel,60,,,m,0.173705,0,187,187,187,1
,,,,m,2.037065,,,,,,paints/images/144.jpg,paints/images/280.jpg,189,YF,1,2020-11-24_00h47.49.140,test3,2020.2.4,MacIntel,60,,,m,0.188745,0,188,188,188,1
,,,,z,1.888795,,,,,,paints/images/24.jpg,paints/images/389.jpg,190,YF,1,2020-11-24_00h47.49.140,test3,2020.2.4,MacIntel,60,,,m,0.19429,0,189,189,189,1
,,,,m,2.04079,,,,,,paints/images/222.jpg,paints/images/7.jpg,191,YF,1,2020-11-24_00h47.49.140,test3,2020.2.4,MacIntel,60,,,m,0.203515,0,190,190,190,1
,,,,z,1.584295,,,,,,paints/images/282.jpg,paints/images/278.jpg,192,YF,1,2020-11-24_00h47.49.140,test3,2020.2.4,MacIntel,60,,,m,0.208125,0,191,191,191,1
,,,,m,2.22445,,,,,,paints/images/190.jpg,paints/images/61.jpg,193,YF,1,2020-11-24_00h47.49.140,test3,2020.2.4,MacIntel,60,,,m,0.220835,0,192,192,192,1
,,,,m,2.806225,,,,,,paints/images/212.jpg,paints/images/402.jpg,194,YF,1,2020-11-24_00h47.49.140,test3,2020.2.4,MacIntel,60,,,m,0.203305,0,193,193,193,1
,,,,m,2.018355,,,,,,paints/images/80.jpg,paints/images/410.jpg,195,YF,1,2020-11-24_00h47.49.140,test3,2020.2.4,MacIntel,60,,,m,0.189635,0,194,194,194,1
,,,,m,3.239565,,,,,,paints/images/252.jpg,paints/images/382.jpg,196,YF,1,2020-11-24_00h47.49.140,test3,2020.2.4,MacIntel,60,,,m,0.21295,0,195,195,195,1
,,,,m,3.970045,,,,,,paints/images/71.jpg,paints/images/337.jpg,197,YF,1,2020-11-24_00h47.49.140,test3,2020.2.4,MacIntel,60,,,m,0.20871,0,196,196,196,1
,,,,m,7.05531,,,,,,paints/images/264.jpg,paints/images/118.jpg,198,YF,1,2020-11-24_00h47.49.140,test3,2020.2.4,MacIntel,60,,,m,0.356705,0,197,197,197,1
,,,,m,2.97594,,,,,,paints/images/180.jpg,paints/images/357.jpg,199,YF,1,2020-11-24_00h47.49.140,test3,2020.2.4,MacIntel,60,,,m,0.188315,0,198,198,198,1
,,,,m,1.42293,,,,,,paints/images/357.jpg,paints/images/15.jpg,200,YF,1,2020-11-24_00h47.49.140,test3,2020.2.4,MacIntel,60,,,m,0.242495,0,199,199,199,1
,,,,z,3.23953,,,,,,paints/images/401.jpg,paints/images/220.jpg,201,YF,1,2020-11-24_00h47.49.140,test3,2020.2.4,MacIntel,60,,,m,0.262305,0,200,200,200,1
,,,,z,1.679235,,,,,,paints/images/95.jpg,paints/images/135.jpg,202,YF,1,2020-11-24_00h47.49.140,test3,2020.2.4,MacIntel,60,,,m,0.24214,0,201,201,201,1
,,,,m,0.96739,,,,,,paints/images/152.jpg,paints/images/234.jpg,203,YF,1,2020-11-24_00h47.49.140,test3,2020.2.4,MacIntel,60,,,m,0.23499,0,202,202,202,1
,,,,z,4.001395,,,,,,paints/images/30.jpg,paints/images/88.jpg,204,YF,1,2020-11-24_00h47.49.140,test3,2020.2.4,MacIntel,60,,,m,0.19315,0,203,203,203,1
,,,,z,1.44108,,,,,,paints/images/194.jpg,paints/images/392.jpg,205,YF,1,2020-11-24_00h47.49.140,test3,2020.2.4,MacIntel,60,,,m,0.35737,0,204,204,204,1
,,,,z,4.25645,,,,,,paints/images/351.jpg,paints/images/103.jpg,206,YF,1,2020-11-24_00h47.49.140,test3,2020.2.4,MacIntel,60,,,m,0.205815,0,205,205,205,1
,,,,z,12.043565,,,,,,paints/images/236.jpg,paints/images/369.jpg,207,YF,1,2020-11-24_00h47.49.140,test3,2020.2.4,MacIntel,60,,,m,0.2035,0,206,206,206,1
,,,,m,4.773165,,,,,,paints/images/219.jpg,paints/images/136.jpg,208,YF,1,2020-11-24_00h47.49.140,test3,2020.2.4,MacIntel,60,,,m,0.20432,0,207,207,207,1
,,,,m,6.10987,,,,,,paints/images/306.jpg,paints/images/239.jpg,209,YF,1,2020-11-24_00h47.49.140,test3,2020.2.4,MacIntel,60,,,m,0.180025,0,208,208,208,1
,,,,z,1.688555,,,,,,paints/images/108.jpg,paints/images/259.jpg,210,YF,1,2020-11-24_00h47.49.140,test3,2020.2.4,MacIntel,60,,,m,0.647655,0,209,209,209,1
,,,,z,1.355595,,,,,,paints/images/210.jpg,paints/images/30.jpg,211,YF,1,2020-11-24_00h47.49.140,test3,2020.2.4,MacIntel,60,,,m,2.31255,0,210,210,210,1
