key_resp.keys,key_resp.rt,key_resp_3.keys,key_resp_3.rt,key_resp_2.keys,key_resp_2.rt,trials.thisRepN,trials.thisTrialN,trials.thisN,trials.thisIndex,trials.ran,image_left,image_right,trial_num,participant,session,date,expName,psychopyVersion,OS,frameRate,key_resp_4.keys,key_resp_4.rt,trials_2.thisRepN,trials_2.thisTrialN,trials_2.thisN,trials_2.thisIndex,trials_2.ran
space,1.161,space,0.618,z,3.548,0,0,0,0,1,houses/images/0.jpg,houses/images/349.jpg,1,Ai,001,2020-11-21_22h20.51.729,test2,2020.2.5,MacIntel,60,,,,,,,
,,,,z,3.926,0,1,1,1,1,houses/images/1.jpg,houses/images/194.jpg,2,Ai,001,2020-11-21_22h20.51.729,test2,2020.2.5,MacIntel,60,,,,,,,
,,,,z,1.595,0,2,2,2,1,houses/images/10.jpg,houses/images/159.jpg,3,Ai,001,2020-11-21_22h20.51.729,test2,2020.2.5,MacIntel,60,,,,,,,
,,,,m,1.442,0,3,3,3,1,houses/images/100.jpg,houses/images/42.jpg,4,Ai,001,2020-11-21_22h20.51.729,test2,2020.2.5,MacIntel,60,,,,,,,
,,,,m,1.739,0,4,4,4,1,houses/images/101.jpg,houses/images/240.jpg,5,Ai,001,2020-11-21_22h20.51.729,test2,2020.2.5,MacIntel,60,,,,,,,
,,,,m,1.258,0,5,5,5,1,houses/images/102.jpg,houses/images/201.jpg,6,Ai,001,2020-11-21_22h20.51.729,test2,2020.2.5,MacIntel,60,,,,,,,
,,,,z,1.434,0,6,6,6,1,houses/images/103.jpg,houses/images/223.jpg,7,Ai,001,2020-11-21_22h20.51.729,test2,2020.2.5,MacIntel,60,,,,,,,
,,,,z,1.449,0,7,7,7,1,houses/images/104.jpg,houses/images/46.jpg,8,Ai,001,2020-11-21_22h20.51.729,test2,2020.2.5,MacIntel,60,,,,,,,
,,,,z,1.625,0,8,8,8,1,houses/images/105.jpg,houses/images/109.jpg,9,Ai,001,2020-11-21_22h20.51.729,test2,2020.2.5,MacIntel,60,,,,,,,
,,,,z,2.486,0,9,9,9,1,houses/images/106.jpg,houses/images/12.jpg,10,Ai,001,2020-11-21_22h20.51.729,test2,2020.2.5,MacIntel,60,,,,,,,
,,,,m,1.037,0,10,10,10,1,houses/images/107.jpg,houses/images/358.jpg,11,Ai,001,2020-11-21_22h20.51.729,test2,2020.2.5,MacIntel,60,,,,,,,
,,,,z,1.365,0,11,11,11,1,houses/images/108.jpg,houses/images/197.jpg,12,Ai,001,2020-11-21_22h20.51.729,test2,2020.2.5,MacIntel,60,,,,,,,
,,,,z,1.001,0,12,12,12,1,houses/images/109.jpg,houses/images/133.jpg,13,Ai,001,2020-11-21_22h20.51.729,test2,2020.2.5,MacIntel,60,,,,,,,
,,,,z,2.146,0,13,13,13,1,houses/images/11.jpg,houses/images/286.jpg,14,Ai,001,2020-11-21_22h20.51.729,test2,2020.2.5,MacIntel,60,,,,,,,
,,,,z,1.314,0,14,14,14,1,houses/images/210.jpg,houses/images/33.jpg,15,Ai,001,2020-11-21_22h20.51.729,test2,2020.2.5,MacIntel,60,,,,,,,
,,,,z,1.166,0,15,15,15,1,houses/images/111.jpg,houses/images/156.jpg,16,Ai,001,2020-11-21_22h20.51.729,test2,2020.2.5,MacIntel,60,,,,,,,
,,,,z,1.934,0,16,16,16,1,houses/images/112.jpg,houses/images/128.jpg,17,Ai,001,2020-11-21_22h20.51.729,test2,2020.2.5,MacIntel,60,,,,,,,
,,,,m,2.201,0,17,17,17,1,houses/images/113.jpg,houses/images/306.jpg,18,Ai,001,2020-11-21_22h20.51.729,test2,2020.2.5,MacIntel,60,,,,,,,
,,,,m,3.527,0,18,18,18,1,houses/images/114.jpg,houses/images/272.jpg,19,Ai,001,2020-11-21_22h20.51.729,test2,2020.2.5,MacIntel,60,,,,,,,
,,,,m,1.16,0,19,19,19,1,houses/images/115.jpg,houses/images/112.jpg,20,Ai,001,2020-11-21_22h20.51.729,test2,2020.2.5,MacIntel,60,,,,,,,
,,,,z,1.439,0,20,20,20,1,houses/images/116.jpg,houses/images/101.jpg,21,Ai,001,2020-11-21_22h20.51.729,test2,2020.2.5,MacIntel,60,,,,,,,
,,,,m,1.112,0,21,21,21,1,houses/images/117.jpg,houses/images/298.jpg,22,Ai,001,2020-11-21_22h20.51.729,test2,2020.2.5,MacIntel,60,,,,,,,
,,,,m,1.428,0,22,22,22,1,houses/images/118.jpg,houses/images/80.jpg,23,Ai,001,2020-11-21_22h20.51.729,test2,2020.2.5,MacIntel,60,,,,,,,
,,,,m,0.972,0,23,23,23,1,houses/images/119.jpg,houses/images/329.jpg,24,Ai,001,2020-11-21_22h20.51.729,test2,2020.2.5,MacIntel,60,,,,,,,
,,,,m,1.058,0,24,24,24,1,houses/images/12.jpg,houses/images/320.jpg,25,Ai,001,2020-11-21_22h20.51.729,test2,2020.2.5,MacIntel,60,,,,,,,
,,,,z,0.82,0,25,25,25,1,houses/images/120.jpg,houses/images/24.jpg,26,Ai,001,2020-11-21_22h20.51.729,test2,2020.2.5,MacIntel,60,,,,,,,
,,,,z,0.913,0,26,26,26,1,houses/images/121.jpg,houses/images/341.jpg,27,Ai,001,2020-11-21_22h20.51.729,test2,2020.2.5,MacIntel,60,,,,,,,
,,,,z,1.634,0,27,27,27,1,houses/images/122.jpg,houses/images/38.jpg,28,Ai,001,2020-11-21_22h20.51.729,test2,2020.2.5,MacIntel,60,,,,,,,
,,,,z,1.093,0,28,28,28,1,houses/images/123.jpg,houses/images/98.jpg,29,Ai,001,2020-11-21_22h20.51.729,test2,2020.2.5,MacIntel,60,,,,,,,
,,,,z,1.688,0,29,29,29,1,houses/images/124.jpg,houses/images/213.jpg,30,Ai,001,2020-11-21_22h20.51.729,test2,2020.2.5,MacIntel,60,,,,,,,
,,,,z,1.041,0,30,30,30,1,houses/images/225.jpg,houses/images/208.jpg,31,Ai,001,2020-11-21_22h20.51.729,test2,2020.2.5,MacIntel,60,,,,,,,
,,,,m,1.038,0,31,31,31,1,houses/images/226.jpg,houses/images/210.jpg,32,Ai,001,2020-11-21_22h20.51.729,test2,2020.2.5,MacIntel,60,,,,,,,
,,,,z,1.095,0,32,32,32,1,houses/images/127.jpg,houses/images/90.jpg,33,Ai,001,2020-11-21_22h20.51.729,test2,2020.2.5,MacIntel,60,,,,,,,
,,,,z,3.655,0,33,33,33,1,houses/images/128.jpg,houses/images/113.jpg,34,Ai,001,2020-11-21_22h20.51.729,test2,2020.2.5,MacIntel,60,,,,,,,
,,,,m,0.832,0,34,34,34,1,houses/images/129.jpg,houses/images/232.jpg,35,Ai,001,2020-11-21_22h20.51.729,test2,2020.2.5,MacIntel,60,,,,,,,
,,,,m,1.037,0,35,35,35,1,houses/images/13.jpg,houses/images/359.jpg,36,Ai,001,2020-11-21_22h20.51.729,test2,2020.2.5,MacIntel,60,,,,,,,
,,,,z,2.725,0,36,36,36,1,houses/images/130.jpg,houses/images/187.jpg,37,Ai,001,2020-11-21_22h20.51.729,test2,2020.2.5,MacIntel,60,,,,,,,
,,,,z,0.757,0,37,37,37,1,houses/images/131.jpg,houses/images/275.jpg,38,Ai,001,2020-11-21_22h20.51.729,test2,2020.2.5,MacIntel,60,,,,,,,
,,,,m,1.137,0,38,38,38,1,houses/images/132.jpg,houses/images/162.jpg,39,Ai,001,2020-11-21_22h20.51.729,test2,2020.2.5,MacIntel,60,,,,,,,
,,,,m,0.904,0,39,39,39,1,houses/images/133.jpg,houses/images/311.jpg,40,Ai,001,2020-11-21_22h20.51.729,test2,2020.2.5,MacIntel,60,,,,,,,
,,,,z,0.873,0,40,40,40,1,houses/images/134.jpg,houses/images/277.jpg,41,Ai,001,2020-11-21_22h20.51.729,test2,2020.2.5,MacIntel,60,,,,,,,
,,,,m,1.22,0,41,41,41,1,houses/images/135.jpg,houses/images/71.jpg,42,Ai,001,2020-11-21_22h20.51.729,test2,2020.2.5,MacIntel,60,,,,,,,
,,,,z,1.177,0,42,42,42,1,houses/images/236.jpg,houses/images/72.jpg,43,Ai,001,2020-11-21_22h20.51.729,test2,2020.2.5,MacIntel,60,,,,,,,
,,,,m,1.316,0,43,43,43,1,houses/images/137.jpg,houses/images/246.jpg,44,Ai,001,2020-11-21_22h20.51.729,test2,2020.2.5,MacIntel,60,,,,,,,
,,,,z,1.131,0,44,44,44,1,houses/images/138.jpg,houses/images/174.jpg,45,Ai,001,2020-11-21_22h20.51.729,test2,2020.2.5,MacIntel,60,,,,,,,
,,,,m,0.877,0,45,45,45,1,houses/images/239.jpg,houses/images/292.jpg,46,Ai,001,2020-11-21_22h20.51.729,test2,2020.2.5,MacIntel,60,,,,,,,
,,,,m,1.007,0,46,46,46,1,houses/images/14.jpg,houses/images/194.jpg,47,Ai,001,2020-11-21_22h20.51.729,test2,2020.2.5,MacIntel,60,,,,,,,
,,,,m,1.031,0,47,47,47,1,houses/images/240.jpg,houses/images/180.jpg,48,Ai,001,2020-11-21_22h20.51.729,test2,2020.2.5,MacIntel,60,,,,,,,
,,,,z,1.597,0,48,48,48,1,houses/images/141.jpg,houses/images/262.jpg,49,Ai,001,2020-11-21_22h20.51.729,test2,2020.2.5,MacIntel,60,,,,,,,
,,,,z,1.079,0,49,49,49,1,houses/images/42.jpg,houses/images/118.jpg,50,Ai,001,2020-11-21_22h20.51.729,test2,2020.2.5,MacIntel,60,,,,,,,
,,,,m,1.315,0,50,50,50,1,houses/images/143.jpg,houses/images/316.jpg,51,Ai,001,2020-11-21_22h20.51.729,test2,2020.2.5,MacIntel,60,,,,,,,
,,,,m,1.316,0,51,51,51,1,houses/images/144.jpg,houses/images/29.jpg,52,Ai,001,2020-11-21_22h20.51.729,test2,2020.2.5,MacIntel,60,,,,,,,
,,,,z,1.093,0,52,52,52,1,houses/images/145.jpg,houses/images/146.jpg,53,Ai,001,2020-11-21_22h20.51.729,test2,2020.2.5,MacIntel,60,,,,,,,
,,,,z,1.368,0,53,53,53,1,houses/images/146.jpg,houses/images/342.jpg,54,Ai,001,2020-11-21_22h20.51.729,test2,2020.2.5,MacIntel,60,,,,,,,
,,,,m,0.905,0,54,54,54,1,houses/images/147.jpg,houses/images/120.jpg,55,Ai,001,2020-11-21_22h20.51.729,test2,2020.2.5,MacIntel,60,,,,,,,
,,,,z,0.984,0,55,55,55,1,houses/images/148.jpg,houses/images/204.jpg,56,Ai,001,2020-11-21_22h20.51.729,test2,2020.2.5,MacIntel,60,,,,,,,
,,,,m,0.628,0,56,56,56,1,houses/images/149.jpg,houses/images/292.jpg,57,Ai,001,2020-11-21_22h20.51.729,test2,2020.2.5,MacIntel,60,,,,,,,
,,,,m,0.976,0,57,57,57,1,houses/images/15.jpg,houses/images/191.jpg,58,Ai,001,2020-11-21_22h20.51.729,test2,2020.2.5,MacIntel,60,,,,,,,
,,,,z,1.128,0,58,58,58,1,houses/images/150.jpg,houses/images/318.jpg,59,Ai,001,2020-11-21_22h20.51.729,test2,2020.2.5,MacIntel,60,,,,,,,
,,,,m,0.576,0,59,59,59,1,houses/images/151.jpg,houses/images/255.jpg,60,Ai,001,2020-11-21_22h20.51.729,test2,2020.2.5,MacIntel,60,,,,,,,
,,,,z,1.855,0,60,60,60,1,houses/images/152.jpg,houses/images/261.jpg,61,Ai,001,2020-11-21_22h20.51.729,test2,2020.2.5,MacIntel,60,,,,,,,
,,,,m,0.729,0,61,61,61,1,houses/images/253.jpg,houses/images/129.jpg,62,Ai,001,2020-11-21_22h20.51.729,test2,2020.2.5,MacIntel,60,,,,,,,
,,,,z,0.902,0,62,62,62,1,houses/images/154.jpg,houses/images/36.jpg,63,Ai,001,2020-11-21_22h20.51.729,test2,2020.2.5,MacIntel,60,,,,,,,
,,,,m,0.819,0,63,63,63,1,houses/images/155.jpg,houses/images/210.jpg,64,Ai,001,2020-11-21_22h20.51.729,test2,2020.2.5,MacIntel,60,,,,,,,
,,,,m,0.533,0,64,64,64,1,houses/images/156.jpg,houses/images/132.jpg,65,Ai,001,2020-11-21_22h20.51.729,test2,2020.2.5,MacIntel,60,,,,,,,
,,,,z,1.222,0,65,65,65,1,houses/images/157.jpg,houses/images/70.jpg,66,Ai,001,2020-11-21_22h20.51.729,test2,2020.2.5,MacIntel,60,,,,,,,
,,,,m,1.311,0,66,66,66,1,houses/images/158.jpg,houses/images/199.jpg,67,Ai,001,2020-11-21_22h20.51.729,test2,2020.2.5,MacIntel,60,,,,,,,
,,,,m,0.755,0,67,67,67,1,houses/images/159.jpg,houses/images/226.jpg,68,Ai,001,2020-11-21_22h20.51.729,test2,2020.2.5,MacIntel,60,,,,,,,
,,,,m,0.739,0,68,68,68,1,houses/images/16.jpg,houses/images/50.jpg,69,Ai,001,2020-11-21_22h20.51.729,test2,2020.2.5,MacIntel,60,,,,,,,
,,,,z,1.17,0,69,69,69,1,houses/images/160.jpg,houses/images/239.jpg,70,Ai,001,2020-11-21_22h20.51.729,test2,2020.2.5,MacIntel,60,,,,,,,
,,,,z,1.05,0,70,70,70,1,houses/images/161.jpg,houses/images/289.jpg,71,Ai,001,2020-11-21_22h20.51.729,test2,2020.2.5,MacIntel,60,,,,,,,
,,,,m,1.607,0,71,71,71,1,houses/images/162.jpg,houses/images/325.jpg,72,Ai,001,2020-11-21_22h20.51.729,test2,2020.2.5,MacIntel,60,,,,,,,
,,,,z,1.335,0,72,72,72,1,houses/images/163.jpg,houses/images/259.jpg,73,Ai,001,2020-11-21_22h20.51.729,test2,2020.2.5,MacIntel,60,,,,,,,
,,,,m,0.753,0,73,73,73,1,houses/images/164.jpg,houses/images/316.jpg,74,Ai,001,2020-11-21_22h20.51.729,test2,2020.2.5,MacIntel,60,,,,,,,
,,,,m,0.855,0,74,74,74,1,houses/images/165.jpg,houses/images/311.jpg,75,Ai,001,2020-11-21_22h20.51.729,test2,2020.2.5,MacIntel,60,,,,,,,
,,,,z,0.688,0,75,75,75,1,houses/images/166.jpg,houses/images/246.jpg,76,Ai,001,2020-11-21_22h20.51.729,test2,2020.2.5,MacIntel,60,,,,,,,
,,,,m,1.197,0,76,76,76,1,houses/images/167.jpg,houses/images/269.jpg,77,Ai,001,2020-11-21_22h20.51.729,test2,2020.2.5,MacIntel,60,,,,,,,
,,,,m,1.061,0,77,77,77,1,houses/images/168.jpg,houses/images/360.jpg,78,Ai,001,2020-11-21_22h20.51.729,test2,2020.2.5,MacIntel,60,,,,,,,
,,,,m,0.689,0,78,78,78,1,houses/images/169.jpg,houses/images/116.jpg,79,Ai,001,2020-11-21_22h20.51.729,test2,2020.2.5,MacIntel,60,,,,,,,
,,,,z,0.58,0,79,79,79,1,houses/images/17.jpg,houses/images/245.jpg,80,Ai,001,2020-11-21_22h20.51.729,test2,2020.2.5,MacIntel,60,,,,,,,
,,,,m,0.68,0,80,80,80,1,houses/images/170.jpg,houses/images/152.jpg,81,Ai,001,2020-11-21_22h20.51.729,test2,2020.2.5,MacIntel,60,,,,,,,
,,,,m,0.792,0,81,81,81,1,houses/images/171.jpg,houses/images/77.jpg,82,Ai,001,2020-11-21_22h20.51.729,test2,2020.2.5,MacIntel,60,,,,,,,
,,,,z,0,0,82,82,82,1,houses/images/172.jpg,houses/images/154.jpg,83,Ai,001,2020-11-21_22h20.51.729,test2,2020.2.5,MacIntel,60,,,,,,,
,,,,z,1.273,0,83,83,83,1,houses/images/273.jpg,houses/images/210.jpg,84,Ai,001,2020-11-21_22h20.51.729,test2,2020.2.5,MacIntel,60,,,,,,,
,,,,m,0.704,0,84,84,84,1,houses/images/174.jpg,houses/images/121.jpg,85,Ai,001,2020-11-21_22h20.51.729,test2,2020.2.5,MacIntel,60,,,,,,,
,,,,z,0.929,0,85,85,85,1,houses/images/175.jpg,houses/images/47.jpg,86,Ai,001,2020-11-21_22h20.51.729,test2,2020.2.5,MacIntel,60,,,,,,,
,,,,m,0.746,0,86,86,86,1,houses/images/176.jpg,houses/images/328.jpg,87,Ai,001,2020-11-21_22h20.51.729,test2,2020.2.5,MacIntel,60,,,,,,,
,,,,m,0.704,0,87,87,87,1,houses/images/177.jpg,houses/images/35.jpg,88,Ai,001,2020-11-21_22h20.51.729,test2,2020.2.5,MacIntel,60,,,,,,,
,,,,z,0.744,0,88,88,88,1,houses/images/178.jpg,houses/images/299.jpg,89,Ai,001,2020-11-21_22h20.51.729,test2,2020.2.5,MacIntel,60,,,,,,,
,,,,z,0.311,0,89,89,89,1,houses/images/179.jpg,houses/images/283.jpg,90,Ai,001,2020-11-21_22h20.51.729,test2,2020.2.5,MacIntel,60,,,,,,,
,,,,m,0.66,0,90,90,90,1,houses/images/18.jpg,houses/images/182.jpg,91,Ai,001,2020-11-21_22h20.51.729,test2,2020.2.5,MacIntel,60,,,,,,,
,,,,z,0.771,0,91,91,91,1,houses/images/180.jpg,houses/images/327.jpg,92,Ai,001,2020-11-21_22h20.51.729,test2,2020.2.5,MacIntel,60,,,,,,,
,,,,z,0.889,0,92,92,92,1,houses/images/281.jpg,houses/images/334.jpg,93,Ai,001,2020-11-21_22h20.51.729,test2,2020.2.5,MacIntel,60,,,,,,,
,,,,m,1.697,0,93,93,93,1,houses/images/182.jpg,houses/images/75.jpg,94,Ai,001,2020-11-21_22h20.51.729,test2,2020.2.5,MacIntel,60,,,,,,,
,,,,m,1.032,0,94,94,94,1,houses/images/183.jpg,houses/images/137.jpg,95,Ai,001,2020-11-21_22h20.51.729,test2,2020.2.5,MacIntel,60,,,,,,,
,,,,m,0.916,0,95,95,95,1,houses/images/184.jpg,houses/images/344.jpg,96,Ai,001,2020-11-21_22h20.51.729,test2,2020.2.5,MacIntel,60,,,,,,,
,,,,z,0.814,0,96,96,96,1,houses/images/185.jpg,houses/images/285.jpg,97,Ai,001,2020-11-21_22h20.51.729,test2,2020.2.5,MacIntel,60,,,,,,,
,,,,m,0.691,0,97,97,97,1,houses/images/186.jpg,houses/images/230.jpg,98,Ai,001,2020-11-21_22h20.51.729,test2,2020.2.5,MacIntel,60,,,,,,,
,,,,z,0.804,0,98,98,98,1,houses/images/187.jpg,houses/images/3.jpg,99,Ai,001,2020-11-21_22h20.51.729,test2,2020.2.5,MacIntel,60,,,,,,,
,,,,m,0.898,0,99,99,99,1,houses/images/188.jpg,houses/images/304.jpg,100,Ai,001,2020-11-21_22h20.51.729,test2,2020.2.5,MacIntel,60,,,,,,,
,,,,m,0.839,0,100,100,100,1,houses/images/189.jpg,houses/images/17.jpg,101,Ai,001,2020-11-21_22h20.51.729,test2,2020.2.5,MacIntel,60,,,,,,,
,,,,z,1.063,0,101,101,101,1,houses/images/19.jpg,houses/images/351.jpg,102,Ai,001,2020-11-21_22h20.51.729,test2,2020.2.5,MacIntel,60,,,,,,,
,,,,m,1.214,0,102,102,102,1,houses/images/190.jpg,houses/images/307.jpg,103,Ai,001,2020-11-21_22h20.51.729,test2,2020.2.5,MacIntel,60,,,,,,,
,,,,m,0.864,0,103,103,103,1,houses/images/191.jpg,houses/images/326.jpg,104,Ai,001,2020-11-21_22h20.51.729,test2,2020.2.5,MacIntel,60,,,,,,,
,,,,z,0.736,0,104,104,104,1,houses/images/292.jpg,houses/images/240.jpg,105,Ai,001,2020-11-21_22h20.51.729,test2,2020.2.5,MacIntel,60,,,,,,,
,,,,m,1.117,0,105,105,105,1,houses/images/193.jpg,houses/images/243.jpg,106,Ai,001,2020-11-21_22h20.51.729,test2,2020.2.5,MacIntel,60,,,,,,,
,,,,m,0.748,0,106,106,106,1,houses/images/194.jpg,houses/images/291.jpg,107,Ai,001,2020-11-21_22h20.51.729,test2,2020.2.5,MacIntel,60,,,,,,,
,,,,m,0.879,0,107,107,107,1,houses/images/195.jpg,houses/images/361.jpg,108,Ai,001,2020-11-21_22h20.51.729,test2,2020.2.5,MacIntel,60,,,,,,,
,,,,m,0.812,0,108,108,108,1,houses/images/196.jpg,houses/images/30.jpg,109,Ai,001,2020-11-21_22h20.51.729,test2,2020.2.5,MacIntel,60,,,,,,,
,,,,z,0.744,0,109,109,109,1,houses/images/197.jpg,houses/images/22.jpg,110,Ai,001,2020-11-21_22h20.51.729,test2,2020.2.5,MacIntel,60,,,,,,,
,,,,m,0.727,0,110,110,110,1,houses/images/198.jpg,houses/images/250.jpg,111,Ai,001,2020-11-21_22h20.51.729,test2,2020.2.5,MacIntel,60,,,,,,,
,,,,m,0.594,0,111,111,111,1,houses/images/199.jpg,houses/images/323.jpg,112,Ai,001,2020-11-21_22h20.51.729,test2,2020.2.5,MacIntel,60,,,,,,,
,,,,m,0.932,0,112,112,112,1,houses/images/2.jpg,houses/images/187.jpg,113,Ai,001,2020-11-21_22h20.51.729,test2,2020.2.5,MacIntel,60,,,,,,,
,,,,z,0.909,0,113,113,113,1,houses/images/20.jpg,houses/images/100.jpg,114,Ai,001,2020-11-21_22h20.51.729,test2,2020.2.5,MacIntel,60,,,,,,,
,,,,z,0.926,0,114,114,114,1,houses/images/200.jpg,houses/images/238.jpg,115,Ai,001,2020-11-21_22h20.51.729,test2,2020.2.5,MacIntel,60,,,,,,,
,,,,z,0.902,0,115,115,115,1,houses/images/201.jpg,houses/images/58.jpg,116,Ai,001,2020-11-21_22h20.51.729,test2,2020.2.5,MacIntel,60,,,,,,,
,,,,m,0.969,0,116,116,116,1,houses/images/202.jpg,houses/images/205.jpg,117,Ai,001,2020-11-21_22h20.51.729,test2,2020.2.5,MacIntel,60,,,,,,,
,,,,m,1.265,0,117,117,117,1,houses/images/203.jpg,houses/images/40.jpg,118,Ai,001,2020-11-21_22h20.51.729,test2,2020.2.5,MacIntel,60,,,,,,,
,,,,m,0.723,0,118,118,118,1,houses/images/204.jpg,houses/images/64.jpg,119,Ai,001,2020-11-21_22h20.51.729,test2,2020.2.5,MacIntel,60,,,,,,,
,,,,m,0.782,0,119,119,119,1,houses/images/205.jpg,houses/images/155.jpg,120,Ai,001,2020-11-21_22h20.51.729,test2,2020.2.5,MacIntel,60,,,,,,,
,,,,m,0.797,0,120,120,120,1,houses/images/206.jpg,houses/images/199.jpg,121,Ai,001,2020-11-21_22h20.51.729,test2,2020.2.5,MacIntel,60,,,,,,,
,,,,m,0.862,0,121,121,121,1,houses/images/207.jpg,houses/images/233.jpg,122,Ai,001,2020-11-21_22h20.51.729,test2,2020.2.5,MacIntel,60,,,,,,,
,,,,m,1.123,0,122,122,122,1,houses/images/208.jpg,houses/images/8.jpg,123,Ai,001,2020-11-21_22h20.51.729,test2,2020.2.5,MacIntel,60,,,,,,,
,,,,m,0.946,0,123,123,123,1,houses/images/209.jpg,houses/images/167.jpg,124,Ai,001,2020-11-21_22h20.51.729,test2,2020.2.5,MacIntel,60,,,,,,,
,,,,z,0.691,0,124,124,124,1,houses/images/21.jpg,houses/images/103.jpg,125,Ai,001,2020-11-21_22h20.51.729,test2,2020.2.5,MacIntel,60,,,,,,,
,,,,m,0.618,0,125,125,125,1,houses/images/210.jpg,houses/images/104.jpg,126,Ai,001,2020-11-21_22h20.51.729,test2,2020.2.5,MacIntel,60,,,,,,,
,,,,m,0.722,0,126,126,126,1,houses/images/211.jpg,houses/images/327.jpg,127,Ai,001,2020-11-21_22h20.51.729,test2,2020.2.5,MacIntel,60,,,,,,,
,,,,z,0.815,0,127,127,127,1,houses/images/212.jpg,houses/images/253.jpg,128,Ai,001,2020-11-21_22h20.51.729,test2,2020.2.5,MacIntel,60,,,,,,,
,,,,m,0.65,0,128,128,128,1,houses/images/213.jpg,houses/images/26.jpg,129,Ai,001,2020-11-21_22h20.51.729,test2,2020.2.5,MacIntel,60,,,,,,,
,,,,m,0.934,0,129,129,129,1,houses/images/214.jpg,houses/images/198.jpg,130,Ai,001,2020-11-21_22h20.51.729,test2,2020.2.5,MacIntel,60,,,,,,,
,,,,z,0.86,0,130,130,130,1,houses/images/215.jpg,houses/images/4.jpg,131,Ai,001,2020-11-21_22h20.51.729,test2,2020.2.5,MacIntel,60,,,,,,,
,,,,m,1.001,0,131,131,131,1,houses/images/316.jpg,houses/images/62.jpg,132,Ai,001,2020-11-21_22h20.51.729,test2,2020.2.5,MacIntel,60,,,,,,,
,,,,m,1.281,0,132,132,132,1,houses/images/217.jpg,houses/images/114.jpg,133,Ai,001,2020-11-21_22h20.51.729,test2,2020.2.5,MacIntel,60,,,,,,,
,,,,m,1.875,0,133,133,133,1,houses/images/318.jpg,houses/images/308.jpg,134,Ai,001,2020-11-21_22h20.51.729,test2,2020.2.5,MacIntel,60,,,,,,,
,,,,z,1.21,0,134,134,134,1,houses/images/219.jpg,houses/images/254.jpg,135,Ai,001,2020-11-21_22h20.51.729,test2,2020.2.5,MacIntel,60,,,,,,,
,,,,m,0.879,0,135,135,135,1,houses/images/22.jpg,houses/images/170.jpg,136,Ai,001,2020-11-21_22h20.51.729,test2,2020.2.5,MacIntel,60,,,,,,,
,,,,m,1.07,0,136,136,136,1,houses/images/220.jpg,houses/images/179.jpg,137,Ai,001,2020-11-21_22h20.51.729,test2,2020.2.5,MacIntel,60,,,,,,,
,,,,m,0.612,0,137,137,137,1,houses/images/221.jpg,houses/images/238.jpg,138,Ai,001,2020-11-21_22h20.51.729,test2,2020.2.5,MacIntel,60,,,,,,,
,,,,m,0.703,0,138,138,138,1,houses/images/222.jpg,houses/images/256.jpg,139,Ai,001,2020-11-21_22h20.51.729,test2,2020.2.5,MacIntel,60,,,,,,,
,,,,m,0.808,0,139,139,139,1,houses/images/223.jpg,houses/images/322.jpg,140,Ai,001,2020-11-21_22h20.51.729,test2,2020.2.5,MacIntel,60,,,,,,,
,,,,z,0.819,0,140,140,140,1,houses/images/224.jpg,houses/images/209.jpg,141,Ai,001,2020-11-21_22h20.51.729,test2,2020.2.5,MacIntel,60,,,,,,,
,,,,z,1.256,0,141,141,141,1,houses/images/225.jpg,houses/images/219.jpg,142,Ai,001,2020-11-21_22h20.51.729,test2,2020.2.5,MacIntel,60,,,,,,,
,,,,m,0.993,0,142,142,142,1,houses/images/226.jpg,houses/images/79.jpg,143,Ai,001,2020-11-21_22h20.51.729,test2,2020.2.5,MacIntel,60,,,,,,,
,,,,m,1.016,0,143,143,143,1,houses/images/227.jpg,houses/images/279.jpg,144,Ai,001,2020-11-21_22h20.51.729,test2,2020.2.5,MacIntel,60,,,,,,,
,,,,z,0.523,0,144,144,144,1,houses/images/228.jpg,houses/images/111.jpg,145,Ai,001,2020-11-21_22h20.51.729,test2,2020.2.5,MacIntel,60,,,,,,,
,,,,m,0.597,0,145,145,145,1,houses/images/229.jpg,houses/images/257.jpg,146,Ai,001,2020-11-21_22h20.51.729,test2,2020.2.5,MacIntel,60,,,,,,,
,,,,m,0.727,0,146,146,146,1,houses/images/23.jpg,houses/images/318.jpg,147,Ai,001,2020-11-21_22h20.51.729,test2,2020.2.5,MacIntel,60,,,,,,,
,,,,z,0.865,0,147,147,147,1,houses/images/230.jpg,houses/images/312.jpg,148,Ai,001,2020-11-21_22h20.51.729,test2,2020.2.5,MacIntel,60,,,,,,,
,,,,z,1.008,0,148,148,148,1,houses/images/231.jpg,houses/images/253.jpg,149,Ai,001,2020-11-21_22h20.51.729,test2,2020.2.5,MacIntel,60,,,,,,,
,,,,z,0.587,0,149,149,149,1,houses/images/232.jpg,houses/images/236.jpg,150,Ai,001,2020-11-21_22h20.51.729,test2,2020.2.5,MacIntel,60,,,,,,,
,,,,z,0.819,0,150,150,150,1,houses/images/233.jpg,houses/images/66.jpg,151,Ai,001,2020-11-21_22h20.51.729,test2,2020.2.5,MacIntel,60,,,,,,,
,,,,m,0.815,0,151,151,151,1,houses/images/234.jpg,houses/images/138.jpg,152,Ai,001,2020-11-21_22h20.51.729,test2,2020.2.5,MacIntel,60,,,,,,,
,,,,m,0.822,0,152,152,152,1,houses/images/235.jpg,houses/images/124.jpg,153,Ai,001,2020-11-21_22h20.51.729,test2,2020.2.5,MacIntel,60,,,,,,,
,,,,m,0.789,0,153,153,153,1,houses/images/236.jpg,houses/images/160.jpg,154,Ai,001,2020-11-21_22h20.51.729,test2,2020.2.5,MacIntel,60,,,,,,,
,,,,z,0.553,0,154,154,154,1,houses/images/237.jpg,houses/images/314.jpg,155,Ai,001,2020-11-21_22h20.51.729,test2,2020.2.5,MacIntel,60,,,,,,,
,,,,m,1.097,0,155,155,155,1,houses/images/238.jpg,houses/images/145.jpg,156,Ai,001,2020-11-21_22h20.51.729,test2,2020.2.5,MacIntel,60,,,,,,,
,,,,z,1.503,0,156,156,156,1,houses/images/239.jpg,houses/images/195.jpg,157,Ai,001,2020-11-21_22h20.51.729,test2,2020.2.5,MacIntel,60,,,,,,,
,,,,m,0.703,0,157,157,157,1,houses/images/24.jpg,houses/images/0.jpg,158,Ai,001,2020-11-21_22h20.51.729,test2,2020.2.5,MacIntel,60,,,,,,,
,,,,m,0.832,0,158,158,158,1,houses/images/240.jpg,houses/images/81.jpg,159,Ai,001,2020-11-21_22h20.51.729,test2,2020.2.5,MacIntel,60,,,,,,,
,,,,m,0.753,0,159,159,159,1,houses/images/241.jpg,houses/images/226.jpg,160,Ai,001,2020-11-21_22h20.51.729,test2,2020.2.5,MacIntel,60,,,,,,,
,,,,m,0.729,0,160,160,160,1,houses/images/342.jpg,houses/images/319.jpg,161,Ai,001,2020-11-21_22h20.51.729,test2,2020.2.5,MacIntel,60,,,,,,,
,,,,z,1.153,0,161,161,161,1,houses/images/243.jpg,houses/images/23.jpg,162,Ai,001,2020-11-21_22h20.51.729,test2,2020.2.5,MacIntel,60,,,,,,,
,,,,m,1.073,0,162,162,162,1,houses/images/244.jpg,houses/images/146.jpg,163,Ai,001,2020-11-21_22h20.51.729,test2,2020.2.5,MacIntel,60,,,,,,,
,,,,m,1.146,0,163,163,163,1,houses/images/245.jpg,houses/images/28.jpg,164,Ai,001,2020-11-21_22h20.51.729,test2,2020.2.5,MacIntel,60,,,,,,,
,,,,m,0.952,0,164,164,164,1,houses/images/246.jpg,houses/images/157.jpg,165,Ai,001,2020-11-21_22h20.51.729,test2,2020.2.5,MacIntel,60,,,,,,,
,,,,m,0.517,0,165,165,165,1,houses/images/247.jpg,houses/images/2.jpg,166,Ai,001,2020-11-21_22h20.51.729,test2,2020.2.5,MacIntel,60,,,,,,,
,,,,z,0.801,0,166,166,166,1,houses/images/248.jpg,houses/images/87.jpg,167,Ai,001,2020-11-21_22h20.51.729,test2,2020.2.5,MacIntel,60,,,,,,,
,,,,m,0.542,0,167,167,167,1,houses/images/249.jpg,houses/images/270.jpg,168,Ai,001,2020-11-21_22h20.51.729,test2,2020.2.5,MacIntel,60,,,,,,,
,,,,m,0.69,0,168,168,168,1,houses/images/25.jpg,houses/images/67.jpg,169,Ai,001,2020-11-21_22h20.51.729,test2,2020.2.5,MacIntel,60,,,,,,,
,,,,z,0.622,0,169,169,169,1,houses/images/250.jpg,houses/images/234.jpg,170,Ai,001,2020-11-21_22h20.51.729,test2,2020.2.5,MacIntel,60,,,,,,,
,,,,m,0.457,0,170,170,170,1,houses/images/251.jpg,houses/images/16.jpg,171,Ai,001,2020-11-21_22h20.51.729,test2,2020.2.5,MacIntel,60,,,,,,,
,,,,m,0.393,0,171,171,171,1,houses/images/252.jpg,houses/images/12.jpg,172,Ai,001,2020-11-21_22h20.51.729,test2,2020.2.5,MacIntel,60,,,,,,,
,,,,m,0.866,0,172,172,172,1,houses/images/253.jpg,houses/images/185.jpg,173,Ai,001,2020-11-21_22h20.51.729,test2,2020.2.5,MacIntel,60,,,,,,,
,,,,z,0.77,0,173,173,173,1,houses/images/254.jpg,houses/images/39.jpg,174,Ai,001,2020-11-21_22h20.51.729,test2,2020.2.5,MacIntel,60,,,,,,,
,,,,m,0.854,0,174,174,174,1,houses/images/255.jpg,houses/images/237.jpg,175,Ai,001,2020-11-21_22h20.51.729,test2,2020.2.5,MacIntel,60,,,,,,,
,,,,z,0.845,0,175,175,175,1,houses/images/256.jpg,houses/images/356.jpg,176,Ai,001,2020-11-21_22h20.51.729,test2,2020.2.5,MacIntel,60,,,,,,,
,,,,z,0.921,0,176,176,176,1,houses/images/257.jpg,houses/images/107.jpg,177,Ai,001,2020-11-21_22h20.51.729,test2,2020.2.5,MacIntel,60,,,,,,,
,,,,z,0.753,0,177,177,177,1,houses/images/258.jpg,houses/images/84.jpg,178,Ai,001,2020-11-21_22h20.51.729,test2,2020.2.5,MacIntel,60,,,,,,,
,,,,m,0.746,0,178,178,178,1,houses/images/259.jpg,houses/images/119.jpg,179,Ai,001,2020-11-21_22h20.51.729,test2,2020.2.5,MacIntel,60,,,,,,,
,,,,z,0.628,0,179,179,179,1,houses/images/26.jpg,houses/images/227.jpg,180,Ai,001,2020-11-21_22h20.51.729,test2,2020.2.5,MacIntel,60,,,,,,,
,,,,m,1.036,0,180,180,180,1,houses/images/260.jpg,houses/images/238.jpg,181,Ai,001,2020-11-21_22h20.51.729,test2,2020.2.5,MacIntel,60,,,,,,,
,,,,z,0.99,0,181,181,181,1,houses/images/261.jpg,houses/images/337.jpg,182,Ai,001,2020-11-21_22h20.51.729,test2,2020.2.5,MacIntel,60,,,,,,,
,,,,m,0.978,0,182,182,182,1,houses/images/262.jpg,houses/images/214.jpg,183,Ai,001,2020-11-21_22h20.51.729,test2,2020.2.5,MacIntel,60,,,,,,,
,,,,z,0.85,0,183,183,183,1,houses/images/263.jpg,houses/images/239.jpg,184,Ai,001,2020-11-21_22h20.51.729,test2,2020.2.5,MacIntel,60,,,,,,,
,,,,z,0.783,0,184,184,184,1,houses/images/264.jpg,houses/images/149.jpg,185,Ai,001,2020-11-21_22h20.51.729,test2,2020.2.5,MacIntel,60,,,,,,,
,,,,m,0.713,0,185,185,185,1,houses/images/265.jpg,houses/images/68.jpg,186,Ai,001,2020-11-21_22h20.51.729,test2,2020.2.5,MacIntel,60,,,,,,,
,,,,m,0.903,0,186,186,186,1,houses/images/266.jpg,houses/images/271.jpg,187,Ai,001,2020-11-21_22h20.51.729,test2,2020.2.5,MacIntel,60,,,,,,,
,,,,m,1.322,0,187,187,187,1,houses/images/267.jpg,houses/images/87.jpg,188,Ai,001,2020-11-21_22h20.51.729,test2,2020.2.5,MacIntel,60,,,,,,,
,,,,z,1.128,0,188,188,188,1,houses/images/268.jpg,houses/images/348.jpg,189,Ai,001,2020-11-21_22h20.51.729,test2,2020.2.5,MacIntel,60,,,,,,,
,,,,m,0.999,0,189,189,189,1,houses/images/269.jpg,houses/images/228.jpg,190,Ai,001,2020-11-21_22h20.51.729,test2,2020.2.5,MacIntel,60,,,,,,,
,,,,m,0.715,0,190,190,190,1,houses/images/27.jpg,houses/images/317.jpg,191,Ai,001,2020-11-21_22h20.51.729,test2,2020.2.5,MacIntel,60,,,,,,,
,,,,m,0.872,0,191,191,191,1,houses/images/270.jpg,houses/images/10.jpg,192,Ai,001,2020-11-21_22h20.51.729,test2,2020.2.5,MacIntel,60,,,,,,,
,,,,z,1.007,0,192,192,192,1,houses/images/271.jpg,houses/images/222.jpg,193,Ai,001,2020-11-21_22h20.51.729,test2,2020.2.5,MacIntel,60,,,,,,,
,,,,m,0.946,0,193,193,193,1,houses/images/272.jpg,houses/images/314.jpg,194,Ai,001,2020-11-21_22h20.51.729,test2,2020.2.5,MacIntel,60,,,,,,,
,,,,m,0.86,0,194,194,194,1,houses/images/273.jpg,houses/images/28.jpg,195,Ai,001,2020-11-21_22h20.51.729,test2,2020.2.5,MacIntel,60,,,,,,,
,,,,z,0.755,0,195,195,195,1,houses/images/174.jpg,houses/images/294.jpg,196,Ai,001,2020-11-21_22h20.51.729,test2,2020.2.5,MacIntel,60,,,,,,,
,,,,z,1.618,0,196,196,196,1,houses/images/275.jpg,houses/images/60.jpg,197,Ai,001,2020-11-21_22h20.51.729,test2,2020.2.5,MacIntel,60,,,,,,,
,,,,m,1.269,0,197,197,197,1,houses/images/276.jpg,houses/images/144.jpg,198,Ai,001,2020-11-21_22h20.51.729,test2,2020.2.5,MacIntel,60,,,,,,,
,,,,m,1.169,0,198,198,198,1,houses/images/277.jpg,houses/images/168.jpg,199,Ai,001,2020-11-21_22h20.51.729,test2,2020.2.5,MacIntel,60,,,,,,,
,,,,z,0.663,0,199,199,199,1,houses/images/278.jpg,houses/images/206.jpg,200,Ai,001,2020-11-21_22h20.51.729,test2,2020.2.5,MacIntel,60,,,,,,,
,,,,z,3.255,,,,,,houses/images/279.jpg,houses/images/91.jpg,1,Ai,001,2020-11-21_22h20.51.729,test2,2020.2.5,MacIntel,60,space,1.162,0,0,0,0,1
,,,,m,1.142,,,,,,houses/images/28.jpg,houses/images/49.jpg,2,Ai,001,2020-11-21_22h20.51.729,test2,2020.2.5,MacIntel,60,,,0,1,1,1,1
,,,,z,0.015,,,,,,houses/images/280.jpg,houses/images/163.jpg,3,Ai,001,2020-11-21_22h20.51.729,test2,2020.2.5,MacIntel,60,,,0,2,2,2,1
,,,,z,0.539,,,,,,houses/images/281.jpg,houses/images/176.jpg,4,Ai,001,2020-11-21_22h20.51.729,test2,2020.2.5,MacIntel,60,,,0,3,3,3,1
,,,,m,0.717,,,,,,houses/images/282.jpg,houses/images/263.jpg,5,Ai,001,2020-11-21_22h20.51.729,test2,2020.2.5,MacIntel,60,,,0,4,4,4,1
,,,,z,0.507,,,,,,houses/images/283.jpg,houses/images/303.jpg,6,Ai,001,2020-11-21_22h20.51.729,test2,2020.2.5,MacIntel,60,,,0,5,5,5,1
,,,,z,0.725,,,,,,houses/images/284.jpg,houses/images/184.jpg,7,Ai,001,2020-11-21_22h20.51.729,test2,2020.2.5,MacIntel,60,,,0,6,6,6,1
,,,,m,0.554,,,,,,houses/images/285.jpg,houses/images/264.jpg,8,Ai,001,2020-11-21_22h20.51.729,test2,2020.2.5,MacIntel,60,,,0,7,7,7,1
,,,,m,0.699,,,,,,houses/images/286.jpg,houses/images/89.jpg,9,Ai,001,2020-11-21_22h20.51.729,test2,2020.2.5,MacIntel,60,,,0,8,8,8,1
,,,,z,0.562,,,,,,houses/images/187.jpg,houses/images/350.jpg,10,Ai,001,2020-11-21_22h20.51.729,test2,2020.2.5,MacIntel,60,,,0,9,9,9,1
,,,,m,0.521,,,,,,houses/images/288.jpg,houses/images/267.jpg,11,Ai,001,2020-11-21_22h20.51.729,test2,2020.2.5,MacIntel,60,,,0,10,10,10,1
,,,,z,0.49,,,,,,houses/images/289.jpg,houses/images/332.jpg,12,Ai,001,2020-11-21_22h20.51.729,test2,2020.2.5,MacIntel,60,,,0,11,11,11,1
,,,,m,0.486,,,,,,houses/images/29.jpg,houses/images/61.jpg,13,Ai,001,2020-11-21_22h20.51.729,test2,2020.2.5,MacIntel,60,,,0,12,12,12,1
,,,,m,0.691,,,,,,houses/images/290.jpg,houses/images/102.jpg,14,Ai,001,2020-11-21_22h20.51.729,test2,2020.2.5,MacIntel,60,,,0,13,13,13,1
,,,,z,0.502,,,,,,houses/images/291.jpg,houses/images/220.jpg,15,Ai,001,2020-11-21_22h20.51.729,test2,2020.2.5,MacIntel,60,,,0,14,14,14,1
,,,,m,0.375,,,,,,houses/images/292.jpg,houses/images/121.jpg,16,Ai,001,2020-11-21_22h20.51.729,test2,2020.2.5,MacIntel,60,,,0,15,15,15,1
,,,,m,0.406,,,,,,houses/images/293.jpg,houses/images/25.jpg,17,Ai,001,2020-11-21_22h20.51.729,test2,2020.2.5,MacIntel,60,,,0,16,16,16,1
,,,,z,0.36,,,,,,houses/images/294.jpg,houses/images/284.jpg,18,Ai,001,2020-11-21_22h20.51.729,test2,2020.2.5,MacIntel,60,,,0,17,17,17,1
,,,,z,0.344,,,,,,houses/images/295.jpg,houses/images/273.jpg,19,Ai,001,2020-11-21_22h20.51.729,test2,2020.2.5,MacIntel,60,,,0,18,18,18,1
,,,,z,0.208,,,,,,houses/images/296.jpg,houses/images/122.jpg,20,Ai,001,2020-11-21_22h20.51.729,test2,2020.2.5,MacIntel,60,,,0,19,19,19,1
,,,,z,0.682,,,,,,houses/images/297.jpg,houses/images/217.jpg,21,Ai,001,2020-11-21_22h20.51.729,test2,2020.2.5,MacIntel,60,,,0,20,20,20,1
,,,,m,0.666,,,,,,houses/images/298.jpg,houses/images/178.jpg,22,Ai,001,2020-11-21_22h20.51.729,test2,2020.2.5,MacIntel,60,,,0,21,21,21,1
,,,,z,0.848,,,,,,houses/images/299.jpg,houses/images/43.jpg,23,Ai,001,2020-11-21_22h20.51.729,test2,2020.2.5,MacIntel,60,,,0,22,22,22,1
,,,,m,0.733,,,,,,houses/images/3.jpg,houses/images/229.jpg,24,Ai,001,2020-11-21_22h20.51.729,test2,2020.2.5,MacIntel,60,,,0,23,23,23,1
,,,,m,0.783,,,,,,houses/images/30.jpg,houses/images/177.jpg,25,Ai,001,2020-11-21_22h20.51.729,test2,2020.2.5,MacIntel,60,,,0,24,24,24,1
,,,,z,0.758,,,,,,houses/images/300.jpg,houses/images/342.jpg,26,Ai,001,2020-11-21_22h20.51.729,test2,2020.2.5,MacIntel,60,,,0,25,25,25,1
,,,,z,0.655,,,,,,houses/images/201.jpg,houses/images/57.jpg,27,Ai,001,2020-11-21_22h20.51.729,test2,2020.2.5,MacIntel,60,,,0,26,26,26,1
,,,,z,0.746,,,,,,houses/images/302.jpg,houses/images/186.jpg,28,Ai,001,2020-11-21_22h20.51.729,test2,2020.2.5,MacIntel,60,,,0,27,27,27,1
,,,,m,0.698,,,,,,houses/images/303.jpg,houses/images/131.jpg,29,Ai,001,2020-11-21_22h20.51.729,test2,2020.2.5,MacIntel,60,,,0,28,28,28,1
,,,,m,0.897,,,,,,houses/images/304.jpg,houses/images/183.jpg,30,Ai,001,2020-11-21_22h20.51.729,test2,2020.2.5,MacIntel,60,,,0,29,29,29,1
,,,,m,0.616,,,,,,houses/images/305.jpg,houses/images/200.jpg,31,Ai,001,2020-11-21_22h20.51.729,test2,2020.2.5,MacIntel,60,,,0,30,30,30,1
,,,,m,0.993,,,,,,houses/images/306.jpg,houses/images/94.jpg,32,Ai,001,2020-11-21_22h20.51.729,test2,2020.2.5,MacIntel,60,,,0,31,31,31,1
,,,,m,0.792,,,,,,houses/images/307.jpg,houses/images/96.jpg,33,Ai,001,2020-11-21_22h20.51.729,test2,2020.2.5,MacIntel,60,,,0,32,32,32,1
,,,,z,0.75,,,,,,houses/images/308.jpg,houses/images/76.jpg,34,Ai,001,2020-11-21_22h20.51.729,test2,2020.2.5,MacIntel,60,,,0,33,33,33,1
,,,,m,0.832,,,,,,houses/images/309.jpg,houses/images/78.jpg,35,Ai,001,2020-11-21_22h20.51.729,test2,2020.2.5,MacIntel,60,,,0,34,34,34,1
,,,,m,0.826,,,,,,houses/images/31.jpg,houses/images/76.jpg,36,Ai,001,2020-11-21_22h20.51.729,test2,2020.2.5,MacIntel,60,,,0,35,35,35,1
,,,,m,0.98,,,,,,houses/images/310.jpg,houses/images/128.jpg,37,Ai,001,2020-11-21_22h20.51.729,test2,2020.2.5,MacIntel,60,,,0,36,36,36,1
,,,,m,0.921,,,,,,houses/images/311.jpg,houses/images/190.jpg,38,Ai,001,2020-11-21_22h20.51.729,test2,2020.2.5,MacIntel,60,,,0,37,37,37,1
,,,,m,0.183,,,,,,houses/images/312.jpg,houses/images/5.jpg,39,Ai,001,2020-11-21_22h20.51.729,test2,2020.2.5,MacIntel,60,,,0,38,38,38,1
,,,,z,0.567,,,,,,houses/images/313.jpg,houses/images/188.jpg,40,Ai,001,2020-11-21_22h20.51.729,test2,2020.2.5,MacIntel,60,,,0,39,39,39,1
,,,,m,0.515,,,,,,houses/images/314.jpg,houses/images/342.jpg,41,Ai,001,2020-11-21_22h20.51.729,test2,2020.2.5,MacIntel,60,,,0,40,40,40,1
,,,,m,0.5,,,,,,houses/images/315.jpg,houses/images/288.jpg,42,Ai,001,2020-11-21_22h20.51.729,test2,2020.2.5,MacIntel,60,,,0,41,41,41,1
,,,,m,0.195,,,,,,houses/images/316.jpg,houses/images/321.jpg,43,Ai,001,2020-11-21_22h20.51.729,test2,2020.2.5,MacIntel,60,,,0,42,42,42,1
,,,,z,0.491,,,,,,houses/images/317.jpg,houses/images/82.jpg,44,Ai,001,2020-11-21_22h20.51.729,test2,2020.2.5,MacIntel,60,,,0,43,43,43,1
,,,,m,0.529,,,,,,houses/images/318.jpg,houses/images/169.jpg,45,Ai,001,2020-11-21_22h20.51.729,test2,2020.2.5,MacIntel,60,,,0,44,44,44,1
,,,,z,0.454,,,,,,houses/images/319.jpg,houses/images/224.jpg,46,Ai,001,2020-11-21_22h20.51.729,test2,2020.2.5,MacIntel,60,,,0,45,45,45,1
,,,,z,0.917,,,,,,houses/images/32.jpg,houses/images/175.jpg,47,Ai,001,2020-11-21_22h20.51.729,test2,2020.2.5,MacIntel,60,,,0,46,46,46,1
,,,,z,0.853,,,,,,houses/images/320.jpg,houses/images/247.jpg,48,Ai,001,2020-11-21_22h20.51.729,test2,2020.2.5,MacIntel,60,,,0,47,47,47,1
,,,,m,0.804,,,,,,houses/images/321.jpg,houses/images/97.jpg,49,Ai,001,2020-11-21_22h20.51.729,test2,2020.2.5,MacIntel,60,,,0,48,48,48,1
,,,,z,1.274,,,,,,houses/images/322.jpg,houses/images/74.jpg,50,Ai,001,2020-11-21_22h20.51.729,test2,2020.2.5,MacIntel,60,,,0,49,49,49,1
,,,,z,1.036,,,,,,houses/images/323.jpg,houses/images/148.jpg,51,Ai,001,2020-11-21_22h20.51.729,test2,2020.2.5,MacIntel,60,,,0,50,50,50,1
,,,,z,1.009,,,,,,houses/images/324.jpg,houses/images/313.jpg,52,Ai,001,2020-11-21_22h20.51.729,test2,2020.2.5,MacIntel,60,,,0,51,51,51,1
,,,,m,1.082,,,,,,houses/images/325.jpg,houses/images/11.jpg,53,Ai,001,2020-11-21_22h20.51.729,test2,2020.2.5,MacIntel,60,,,0,52,52,52,1
,,,,z,0.86,,,,,,houses/images/326.jpg,houses/images/21.jpg,54,Ai,001,2020-11-21_22h20.51.729,test2,2020.2.5,MacIntel,60,,,0,53,53,53,1
,,,,m,3.955,,,,,,houses/images/327.jpg,houses/images/281.jpg,55,Ai,001,2020-11-21_22h20.51.729,test2,2020.2.5,MacIntel,60,,,0,54,54,54,1
,,,,m,0.781,,,,,,houses/images/328.jpg,houses/images/172.jpg,56,Ai,001,2020-11-21_22h20.51.729,test2,2020.2.5,MacIntel,60,,,0,55,55,55,1
,,,,z,0.819,,,,,,houses/images/329.jpg,houses/images/273.jpg,57,Ai,001,2020-11-21_22h20.51.729,test2,2020.2.5,MacIntel,60,,,0,56,56,56,1
,,,,m,1.289,,,,,,houses/images/33.jpg,houses/images/239.jpg,58,Ai,001,2020-11-21_22h20.51.729,test2,2020.2.5,MacIntel,60,,,0,57,57,57,1
,,,,m,1.415,,,,,,houses/images/330.jpg,houses/images/333.jpg,59,Ai,001,2020-11-21_22h20.51.729,test2,2020.2.5,MacIntel,60,,,0,58,58,58,1
,,,,z,1.643,,,,,,houses/images/331.jpg,houses/images/361.jpg,60,Ai,001,2020-11-21_22h20.51.729,test2,2020.2.5,MacIntel,60,,,0,59,59,59,1
,,,,z,1.001,,,,,,houses/images/332.jpg,houses/images/91.jpg,61,Ai,001,2020-11-21_22h20.51.729,test2,2020.2.5,MacIntel,60,,,0,60,60,60,1
,,,,z,0.78,,,,,,houses/images/333.jpg,houses/images/158.jpg,62,Ai,001,2020-11-21_22h20.51.729,test2,2020.2.5,MacIntel,60,,,0,61,61,61,1
,,,,z,0.783,,,,,,houses/images/334.jpg,houses/images/10.jpg,63,Ai,001,2020-11-21_22h20.51.729,test2,2020.2.5,MacIntel,60,,,0,62,62,62,1
,,,,m,0.575,,,,,,houses/images/335.jpg,houses/images/331.jpg,64,Ai,001,2020-11-21_22h20.51.729,test2,2020.2.5,MacIntel,60,,,0,63,63,63,1
,,,,z,0.764,,,,,,houses/images/336.jpg,houses/images/171.jpg,65,Ai,001,2020-11-21_22h20.51.729,test2,2020.2.5,MacIntel,60,,,0,64,64,64,1
,,,,m,0.913,,,,,,houses/images/337.jpg,houses/images/226.jpg,66,Ai,001,2020-11-21_22h20.51.729,test2,2020.2.5,MacIntel,60,,,0,65,65,65,1
,,,,m,1.045,,,,,,houses/images/238.jpg,houses/images/214.jpg,67,Ai,001,2020-11-21_22h20.51.729,test2,2020.2.5,MacIntel,60,,,0,66,66,66,1
,,,,m,1.462,,,,,,houses/images/239.jpg,houses/images/130.jpg,68,Ai,001,2020-11-21_22h20.51.729,test2,2020.2.5,MacIntel,60,,,0,67,67,67,1
,,,,z,1.365,,,,,,houses/images/34.jpg,houses/images/85.jpg,69,Ai,001,2020-11-21_22h20.51.729,test2,2020.2.5,MacIntel,60,,,0,68,68,68,1
,,,,m,0.952,,,,,,houses/images/340.jpg,houses/images/248.jpg,70,Ai,001,2020-11-21_22h20.51.729,test2,2020.2.5,MacIntel,60,,,0,69,69,69,1
,,,,z,0.662,,,,,,houses/images/341.jpg,houses/images/215.jpg,71,Ai,001,2020-11-21_22h20.51.729,test2,2020.2.5,MacIntel,60,,,0,70,70,70,1
,,,,m,0.778,,,,,,houses/images/342.jpg,houses/images/155.jpg,72,Ai,001,2020-11-21_22h20.51.729,test2,2020.2.5,MacIntel,60,,,0,71,71,71,1
,,,,m,0.972,,,,,,houses/images/343.jpg,houses/images/193.jpg,73,Ai,001,2020-11-21_22h20.51.729,test2,2020.2.5,MacIntel,60,,,0,72,72,72,1
,,,,m,0.607,,,,,,houses/images/344.jpg,houses/images/324.jpg,74,Ai,001,2020-11-21_22h20.51.729,test2,2020.2.5,MacIntel,60,,,0,73,73,73,1
,,,,m,1.188,,,,,,houses/images/345.jpg,houses/images/86.jpg,75,Ai,001,2020-11-21_22h20.51.729,test2,2020.2.5,MacIntel,60,,,0,74,74,74,1
,,,,z,1.338,,,,,,houses/images/246.jpg,houses/images/295.jpg,76,Ai,001,2020-11-21_22h20.51.729,test2,2020.2.5,MacIntel,60,,,0,75,75,75,1
,,,,m,0.589,,,,,,houses/images/347.jpg,houses/images/292.jpg,77,Ai,001,2020-11-21_22h20.51.729,test2,2020.2.5,MacIntel,60,,,0,76,76,76,1
,,,,m,1.416,,,,,,houses/images/348.jpg,houses/images/55.jpg,78,Ai,001,2020-11-21_22h20.51.729,test2,2020.2.5,MacIntel,60,,,0,77,77,77,1
,,,,m,0.829,,,,,,houses/images/349.jpg,houses/images/1.jpg,79,Ai,001,2020-11-21_22h20.51.729,test2,2020.2.5,MacIntel,60,,,0,78,78,78,1
,,,,z,1.09,,,,,,houses/images/35.jpg,houses/images/73.jpg,80,Ai,001,2020-11-21_22h20.51.729,test2,2020.2.5,MacIntel,60,,,0,79,79,79,1
,,,,m,0.863,,,,,,houses/images/350.jpg,houses/images/44.jpg,81,Ai,001,2020-11-21_22h20.51.729,test2,2020.2.5,MacIntel,60,,,0,80,80,80,1
,,,,m,0.772,,,,,,houses/images/351.jpg,houses/images/6.jpg,82,Ai,001,2020-11-21_22h20.51.729,test2,2020.2.5,MacIntel,60,,,0,81,81,81,1
,,,,z,0.848,,,,,,houses/images/352.jpg,houses/images/20.jpg,83,Ai,001,2020-11-21_22h20.51.729,test2,2020.2.5,MacIntel,60,,,0,82,82,82,1
,,,,m,0.905,,,,,,houses/images/353.jpg,houses/images/18.jpg,84,Ai,001,2020-11-21_22h20.51.729,test2,2020.2.5,MacIntel,60,,,0,83,83,83,1
,,,,z,0.807,,,,,,houses/images/354.jpg,houses/images/347.jpg,85,Ai,001,2020-11-21_22h20.51.729,test2,2020.2.5,MacIntel,60,,,0,84,84,84,1
,,,,z,0.756,,,,,,houses/images/355.jpg,houses/images/27.jpg,86,Ai,001,2020-11-21_22h20.51.729,test2,2020.2.5,MacIntel,60,,,0,85,85,85,1
,,,,m,1.345,,,,,,houses/images/356.jpg,houses/images/276.jpg,87,Ai,001,2020-11-21_22h20.51.729,test2,2020.2.5,MacIntel,60,,,0,86,86,86,1
,,,,z,0.882,,,,,,houses/images/357.jpg,houses/images/345.jpg,88,Ai,001,2020-11-21_22h20.51.729,test2,2020.2.5,MacIntel,60,,,0,87,87,87,1
,,,,z,0.553,,,,,,houses/images/358.jpg,houses/images/235.jpg,89,Ai,001,2020-11-21_22h20.51.729,test2,2020.2.5,MacIntel,60,,,0,88,88,88,1
,,,,m,1.572,,,,,,houses/images/359.jpg,houses/images/115.jpg,90,Ai,001,2020-11-21_22h20.51.729,test2,2020.2.5,MacIntel,60,,,0,89,89,89,1
,,,,z,0.837,,,,,,houses/images/36.jpg,houses/images/310.jpg,91,Ai,001,2020-11-21_22h20.51.729,test2,2020.2.5,MacIntel,60,,,0,90,90,90,1
,,,,z,0.852,,,,,,houses/images/360.jpg,houses/images/93.jpg,92,Ai,001,2020-11-21_22h20.51.729,test2,2020.2.5,MacIntel,60,,,0,91,91,91,1
,,,,m,0.959,,,,,,houses/images/361.jpg,houses/images/212.jpg,93,Ai,001,2020-11-21_22h20.51.729,test2,2020.2.5,MacIntel,60,,,0,92,92,92,1
,,,,m,0.625,,,,,,houses/images/62.jpg,houses/images/51.jpg,94,Ai,001,2020-11-21_22h20.51.729,test2,2020.2.5,MacIntel,60,,,0,93,93,93,1
,,,,z,0.652,,,,,,houses/images/37.jpg,houses/images/108.jpg,95,Ai,001,2020-11-21_22h20.51.729,test2,2020.2.5,MacIntel,60,,,0,94,94,94,1
,,,,m,0.509,,,,,,houses/images/38.jpg,houses/images/127.jpg,96,Ai,001,2020-11-21_22h20.51.729,test2,2020.2.5,MacIntel,60,,,0,95,95,95,1
,,,,m,0.841,,,,,,houses/images/39.jpg,houses/images/52.jpg,97,Ai,001,2020-11-21_22h20.51.729,test2,2020.2.5,MacIntel,60,,,0,96,96,96,1
,,,,m,0.751,,,,,,houses/images/4.jpg,houses/images/318.jpg,98,Ai,001,2020-11-21_22h20.51.729,test2,2020.2.5,MacIntel,60,,,0,97,97,97,1
,,,,m,1.054,,,,,,houses/images/40.jpg,houses/images/201.jpg,99,Ai,001,2020-11-21_22h20.51.729,test2,2020.2.5,MacIntel,60,,,0,98,98,98,1
,,,,z,1.535,,,,,,houses/images/41.jpg,houses/images/7.jpg,100,Ai,001,2020-11-21_22h20.51.729,test2,2020.2.5,MacIntel,60,,,0,99,99,99,1
,,,,z,1.389,,,,,,houses/images/42.jpg,houses/images/340.jpg,101,Ai,001,2020-11-21_22h20.51.729,test2,2020.2.5,MacIntel,60,,,0,100,100,100,1
,,,,z,1.086,,,,,,houses/images/43.jpg,houses/images/150.jpg,102,Ai,001,2020-11-21_22h20.51.729,test2,2020.2.5,MacIntel,60,,,0,101,101,101,1
,,,,m,1.006,,,,,,houses/images/44.jpg,houses/images/246.jpg,103,Ai,001,2020-11-21_22h20.51.729,test2,2020.2.5,MacIntel,60,,,0,102,102,102,1
,,,,z,0.713,,,,,,houses/images/145.jpg,houses/images/18.jpg,104,Ai,001,2020-11-21_22h20.51.729,test2,2020.2.5,MacIntel,60,,,0,103,103,103,1
,,,,m,0.564,,,,,,houses/images/46.jpg,houses/images/211.jpg,105,Ai,001,2020-11-21_22h20.51.729,test2,2020.2.5,MacIntel,60,,,0,104,104,104,1
,,,,z,0.677,,,,,,houses/images/47.jpg,houses/images/282.jpg,106,Ai,001,2020-11-21_22h20.51.729,test2,2020.2.5,MacIntel,60,,,0,105,105,105,1
,,,,z,0.933,,,,,,houses/images/48.jpg,houses/images/145.jpg,107,Ai,001,2020-11-21_22h20.51.729,test2,2020.2.5,MacIntel,60,,,0,106,106,106,1
,,,,m,1.194,,,,,,houses/images/49.jpg,houses/images/135.jpg,108,Ai,001,2020-11-21_22h20.51.729,test2,2020.2.5,MacIntel,60,,,0,107,107,107,1
,,,,z,1.258,,,,,,houses/images/5.jpg,houses/images/59.jpg,109,Ai,001,2020-11-21_22h20.51.729,test2,2020.2.5,MacIntel,60,,,0,108,108,108,1
,,,,z,1.017,,,,,,houses/images/50.jpg,houses/images/164.jpg,110,Ai,001,2020-11-21_22h20.51.729,test2,2020.2.5,MacIntel,60,,,0,109,109,109,1
,,,,z,0.882,,,,,,houses/images/51.jpg,houses/images/42.jpg,111,Ai,001,2020-11-21_22h20.51.729,test2,2020.2.5,MacIntel,60,,,0,110,110,110,1
,,,,m,0.809,,,,,,houses/images/52.jpg,houses/images/32.jpg,112,Ai,001,2020-11-21_22h20.51.729,test2,2020.2.5,MacIntel,60,,,0,111,111,111,1
,,,,m,1.315,,,,,,houses/images/53.jpg,houses/images/357.jpg,113,Ai,001,2020-11-21_22h20.51.729,test2,2020.2.5,MacIntel,60,,,0,112,112,112,1
,,,,m,1.025,,,,,,houses/images/54.jpg,houses/images/305.jpg,114,Ai,001,2020-11-21_22h20.51.729,test2,2020.2.5,MacIntel,60,,,0,113,113,113,1
,,,,z,0.648,,,,,,houses/images/55.jpg,houses/images/352.jpg,115,Ai,001,2020-11-21_22h20.51.729,test2,2020.2.5,MacIntel,60,,,0,114,114,114,1
,,,,m,0.304,,,,,,houses/images/56.jpg,houses/images/273.jpg,116,Ai,001,2020-11-21_22h20.51.729,test2,2020.2.5,MacIntel,60,,,0,115,115,115,1
,,,,m,1.193,,,,,,houses/images/57.jpg,houses/images/143.jpg,117,Ai,001,2020-11-21_22h20.51.729,test2,2020.2.5,MacIntel,60,,,0,116,116,116,1
,,,,m,1.093,,,,,,houses/images/58.jpg,houses/images/95.jpg,118,Ai,001,2020-11-21_22h20.51.729,test2,2020.2.5,MacIntel,60,,,0,117,117,117,1
,,,,m,0.854,,,,,,houses/images/59.jpg,houses/images/244.jpg,119,Ai,001,2020-11-21_22h20.51.729,test2,2020.2.5,MacIntel,60,,,0,118,118,118,1
,,,,z,1.038,,,,,,houses/images/6.jpg,houses/images/202.jpg,120,Ai,001,2020-11-21_22h20.51.729,test2,2020.2.5,MacIntel,60,,,0,119,119,119,1
,,,,m,1.027,,,,,,houses/images/60.jpg,houses/images/203.jpg,121,Ai,001,2020-11-21_22h20.51.729,test2,2020.2.5,MacIntel,60,,,0,120,120,120,1
,,,,z,0.023,,,,,,houses/images/61.jpg,houses/images/123.jpg,122,Ai,001,2020-11-21_22h20.51.729,test2,2020.2.5,MacIntel,60,,,0,121,121,121,1
,,,,z,1.23,,,,,,houses/images/62.jpg,houses/images/353.jpg,123,Ai,001,2020-11-21_22h20.51.729,test2,2020.2.5,MacIntel,60,,,0,122,122,122,1
,,,,m,0.811,,,,,,houses/images/63.jpg,houses/images/281.jpg,124,Ai,001,2020-11-21_22h20.51.729,test2,2020.2.5,MacIntel,60,,,0,123,123,123,1
,,,,z,0.661,,,,,,houses/images/64.jpg,houses/images/280.jpg,125,Ai,001,2020-11-21_22h20.51.729,test2,2020.2.5,MacIntel,60,,,0,124,124,124,1
,,,,m,0.716,,,,,,houses/images/65.jpg,houses/images/309.jpg,126,Ai,001,2020-11-21_22h20.51.729,test2,2020.2.5,MacIntel,60,,,0,125,125,125,1
,,,,m,1.611,,,,,,houses/images/66.jpg,houses/images/302.jpg,127,Ai,001,2020-11-21_22h20.51.729,test2,2020.2.5,MacIntel,60,,,0,126,126,126,1
,,,,m,0.862,,,,,,houses/images/67.jpg,houses/images/300.jpg,128,Ai,001,2020-11-21_22h20.51.729,test2,2020.2.5,MacIntel,60,,,0,127,127,127,1
,,,,m,0.956,,,,,,houses/images/68.jpg,houses/images/328.jpg,129,Ai,001,2020-11-21_22h20.51.729,test2,2020.2.5,MacIntel,60,,,0,128,128,128,1
,,,,z,1.566,,,,,,houses/images/69.jpg,houses/images/114.jpg,130,Ai,001,2020-11-21_22h20.51.729,test2,2020.2.5,MacIntel,60,,,0,129,129,129,1
,,,,m,0.98,,,,,,houses/images/7.jpg,houses/images/31.jpg,131,Ai,001,2020-11-21_22h20.51.729,test2,2020.2.5,MacIntel,60,,,0,130,130,130,1
,,,,m,0.633,,,,,,houses/images/70.jpg,houses/images/54.jpg,132,Ai,001,2020-11-21_22h20.51.729,test2,2020.2.5,MacIntel,60,,,0,131,131,131,1
,,,,m,0.663,,,,,,houses/images/71.jpg,houses/images/293.jpg,133,Ai,001,2020-11-21_22h20.51.729,test2,2020.2.5,MacIntel,60,,,0,132,132,132,1
,,,,m,0.523,,,,,,houses/images/72.jpg,houses/images/37.jpg,134,Ai,001,2020-11-21_22h20.51.729,test2,2020.2.5,MacIntel,60,,,0,133,133,133,1
,,,,z,0.829,,,,,,houses/images/73.jpg,houses/images/230.jpg,135,Ai,001,2020-11-21_22h20.51.729,test2,2020.2.5,MacIntel,60,,,0,134,134,134,1
,,,,m,0.923,,,,,,houses/images/74.jpg,houses/images/88.jpg,136,Ai,001,2020-11-21_22h20.51.729,test2,2020.2.5,MacIntel,60,,,0,135,135,135,1
,,,,m,0.952,,,,,,houses/images/75.jpg,houses/images/161.jpg,137,Ai,001,2020-11-21_22h20.51.729,test2,2020.2.5,MacIntel,60,,,0,136,136,136,1
,,,,m,0.713,,,,,,houses/images/76.jpg,houses/images/354.jpg,138,Ai,001,2020-11-21_22h20.51.729,test2,2020.2.5,MacIntel,60,,,0,137,137,137,1
,,,,m,0.978,,,,,,houses/images/77.jpg,houses/images/251.jpg,139,Ai,001,2020-11-21_22h20.51.729,test2,2020.2.5,MacIntel,60,,,0,138,138,138,1
,,,,m,1.429,,,,,,houses/images/78.jpg,houses/images/143.jpg,140,Ai,001,2020-11-21_22h20.51.729,test2,2020.2.5,MacIntel,60,,,0,139,139,139,1
,,,,m,0.763,,,,,,houses/images/79.jpg,houses/images/335.jpg,141,Ai,001,2020-11-21_22h20.51.729,test2,2020.2.5,MacIntel,60,,,0,140,140,140,1
,,,,m,1.153,,,,,,houses/images/8.jpg,houses/images/231.jpg,142,Ai,001,2020-11-21_22h20.51.729,test2,2020.2.5,MacIntel,60,,,0,141,141,141,1
,,,,m,0.965,,,,,,houses/images/80.jpg,houses/images/69.jpg,143,Ai,001,2020-11-21_22h20.51.729,test2,2020.2.5,MacIntel,60,,,0,142,142,142,1
,,,,m,0.682,,,,,,houses/images/81.jpg,houses/images/92.jpg,144,Ai,001,2020-11-21_22h20.51.729,test2,2020.2.5,MacIntel,60,,,0,143,143,143,1
,,,,m,0.61,,,,,,houses/images/82.jpg,houses/images/221.jpg,145,Ai,001,2020-11-21_22h20.51.729,test2,2020.2.5,MacIntel,60,,,0,144,144,144,1
,,,,z,0.734,,,,,,houses/images/83.jpg,houses/images/196.jpg,146,Ai,001,2020-11-21_22h20.51.729,test2,2020.2.5,MacIntel,60,,,0,145,145,145,1
,,,,z,0.698,,,,,,houses/images/84.jpg,houses/images/53.jpg,147,Ai,001,2020-11-21_22h20.51.729,test2,2020.2.5,MacIntel,60,,,0,146,146,146,1
,,,,m,0.945,,,,,,houses/images/85.jpg,houses/images/166.jpg,148,Ai,001,2020-11-21_22h20.51.729,test2,2020.2.5,MacIntel,60,,,0,147,147,147,1
,,,,m,0.727,,,,,,houses/images/86.jpg,houses/images/266.jpg,149,Ai,001,2020-11-21_22h20.51.729,test2,2020.2.5,MacIntel,60,,,0,148,148,148,1
,,,,m,0.887,,,,,,houses/images/87.jpg,houses/images/355.jpg,150,Ai,001,2020-11-21_22h20.51.729,test2,2020.2.5,MacIntel,60,,,0,149,149,149,1
,,,,m,0.2,,,,,,houses/images/88.jpg,houses/images/206.jpg,151,Ai,001,2020-11-21_22h20.51.729,test2,2020.2.5,MacIntel,60,,,0,150,150,150,1
,,,,m,1.138,,,,,,houses/images/89.jpg,houses/images/241.jpg,152,Ai,001,2020-11-21_22h20.51.729,test2,2020.2.5,MacIntel,60,,,0,151,151,151,1
,,,,m,1.272,,,,,,houses/images/9.jpg,houses/images/147.jpg,153,Ai,001,2020-11-21_22h20.51.729,test2,2020.2.5,MacIntel,60,,,0,152,152,152,1
,,,,m,1.179,,,,,,houses/images/90.jpg,houses/images/117.jpg,154,Ai,001,2020-11-21_22h20.51.729,test2,2020.2.5,MacIntel,60,,,0,153,153,153,1
,,,,m,1.646,,,,,,houses/images/91.jpg,houses/images/34.jpg,155,Ai,001,2020-11-21_22h20.51.729,test2,2020.2.5,MacIntel,60,,,0,154,154,154,1
,,,,m,0.687,,,,,,houses/images/92.jpg,houses/images/105.jpg,156,Ai,001,2020-11-21_22h20.51.729,test2,2020.2.5,MacIntel,60,,,0,155,155,155,1
,,,,m,0.895,,,,,,houses/images/93.jpg,houses/images/249.jpg,157,Ai,001,2020-11-21_22h20.51.729,test2,2020.2.5,MacIntel,60,,,0,156,156,156,1
,,,,m,1.147,,,,,,houses/images/94.jpg,houses/images/265.jpg,158,Ai,001,2020-11-21_22h20.51.729,test2,2020.2.5,MacIntel,60,,,0,157,157,157,1
,,,,m,0.666,,,,,,houses/images/95.jpg,houses/images/65.jpg,159,Ai,001,2020-11-21_22h20.51.729,test2,2020.2.5,MacIntel,60,,,0,158,158,158,1
,,,,m,0.661,,,,,,houses/images/96.jpg,houses/images/83.jpg,160,Ai,001,2020-11-21_22h20.51.729,test2,2020.2.5,MacIntel,60,,,0,159,159,159,1
,,,,m,0.682,,,,,,houses/images/97.jpg,houses/images/165.jpg,161,Ai,001,2020-11-21_22h20.51.729,test2,2020.2.5,MacIntel,60,,,0,160,160,160,1
,,,,m,0.648,,,,,,houses/images/98.jpg,houses/images/280.jpg,162,Ai,001,2020-11-21_22h20.51.729,test2,2020.2.5,MacIntel,60,,,0,161,161,161,1
,,,,m,0.682,,,,,,houses/images/199.jpg,houses/images/278.jpg,163,Ai,001,2020-11-21_22h20.51.729,test2,2020.2.5,MacIntel,60,,,0,162,162,162,1
,,,,m,3.329,,,,,,houses/images/0.jpg,houses/images/297.jpg,164,Ai,001,2020-11-21_22h20.51.729,test2,2020.2.5,MacIntel,60,,,0,163,163,163,1
,,,,m,0.211,,,,,,houses/images/1.jpg,houses/images/225.jpg,165,Ai,001,2020-11-21_22h20.51.729,test2,2020.2.5,MacIntel,60,,,0,164,164,164,1
,,,,m,0.812,,,,,,houses/images/10.jpg,houses/images/41.jpg,166,Ai,001,2020-11-21_22h20.51.729,test2,2020.2.5,MacIntel,60,,,0,165,165,165,1
,,,,m,0.688,,,,,,houses/images/100.jpg,houses/images/19.jpg,167,Ai,001,2020-11-21_22h20.51.729,test2,2020.2.5,MacIntel,60,,,0,166,166,166,1
,,,,m,0.748,,,,,,houses/images/101.jpg,houses/images/189.jpg,168,Ai,001,2020-11-21_22h20.51.729,test2,2020.2.5,MacIntel,60,,,0,167,167,167,1
,,,,m,0.952,,,,,,houses/images/102.jpg,houses/images/141.jpg,169,Ai,001,2020-11-21_22h20.51.729,test2,2020.2.5,MacIntel,60,,,0,168,168,168,1
,,,,m,0.733,,,,,,houses/images/103.jpg,houses/images/212.jpg,170,Ai,001,2020-11-21_22h20.51.729,test2,2020.2.5,MacIntel,60,,,0,169,169,169,1
,,,,z,1.595,,,,,,houses/images/104.jpg,houses/images/134.jpg,171,Ai,001,2020-11-21_22h20.51.729,test2,2020.2.5,MacIntel,60,,,0,170,170,170,1
,,,,m,0.694,,,,,,houses/images/105.jpg,houses/images/13.jpg,172,Ai,001,2020-11-21_22h20.51.729,test2,2020.2.5,MacIntel,60,,,0,171,171,171,1
,,,,m,0.919,,,,,,houses/images/106.jpg,houses/images/258.jpg,173,Ai,001,2020-11-21_22h20.51.729,test2,2020.2.5,MacIntel,60,,,0,172,172,172,1
,,,,m,0.931,,,,,,houses/images/107.jpg,houses/images/14.jpg,174,Ai,001,2020-11-21_22h20.51.729,test2,2020.2.5,MacIntel,60,,,0,173,173,173,1
,,,,m,0.732,,,,,,houses/images/108.jpg,houses/images/9.jpg,175,Ai,001,2020-11-21_22h20.51.729,test2,2020.2.5,MacIntel,60,,,0,174,174,174,1
,,,,m,0.886,,,,,,houses/images/109.jpg,houses/images/106.jpg,176,Ai,001,2020-11-21_22h20.51.729,test2,2020.2.5,MacIntel,60,,,0,175,175,175,1
,,,,z,1.138,,,,,,houses/images/11.jpg,houses/images/268.jpg,177,Ai,001,2020-11-21_22h20.51.729,test2,2020.2.5,MacIntel,60,,,0,176,176,176,1
,,,,m,1.009,,,,,,houses/images/210.jpg,houses/images/330.jpg,178,Ai,001,2020-11-21_22h20.51.729,test2,2020.2.5,MacIntel,60,,,0,177,177,177,1
,,,,m,0.837,,,,,,houses/images/111.jpg,houses/images/343.jpg,179,Ai,001,2020-11-21_22h20.51.729,test2,2020.2.5,MacIntel,60,,,0,178,178,178,1
,,,,z,1.678,,,,,,houses/images/112.jpg,houses/images/225.jpg,180,Ai,001,2020-11-21_22h20.51.729,test2,2020.2.5,MacIntel,60,,,0,179,179,179,1
,,,,m,0.905,,,,,,houses/images/113.jpg,houses/images/174.jpg,181,Ai,001,2020-11-21_22h20.51.729,test2,2020.2.5,MacIntel,60,,,0,180,180,180,1
,,,,m,0.484,,,,,,houses/images/114.jpg,houses/images/25.jpg,182,Ai,001,2020-11-21_22h20.51.729,test2,2020.2.5,MacIntel,60,,,0,181,181,181,1
,,,,z,1.528,,,,,,houses/images/115.jpg,houses/images/100.jpg,183,Ai,001,2020-11-21_22h20.51.729,test2,2020.2.5,MacIntel,60,,,0,182,182,182,1
,,,,z,0.968,,,,,,houses/images/116.jpg,houses/images/48.jpg,184,Ai,001,2020-11-21_22h20.51.729,test2,2020.2.5,MacIntel,60,,,0,183,183,183,1
,,,,m,0.778,,,,,,houses/images/117.jpg,houses/images/296.jpg,185,Ai,001,2020-11-21_22h20.51.729,test2,2020.2.5,MacIntel,60,,,0,184,184,184,1
,,,,m,0.933,,,,,,houses/images/118.jpg,houses/images/15.jpg,186,Ai,001,2020-11-21_22h20.51.729,test2,2020.2.5,MacIntel,60,,,0,185,185,185,1
,,,,m,0.595,,,,,,houses/images/119.jpg,houses/images/252.jpg,187,Ai,001,2020-11-21_22h20.51.729,test2,2020.2.5,MacIntel,60,,,0,186,186,186,1
,,,,m,0.697,,,,,,houses/images/12.jpg,houses/images/290.jpg,188,Ai,001,2020-11-21_22h20.51.729,test2,2020.2.5,MacIntel,60,,,0,187,187,187,1
,,,,z,0.812,,,,,,houses/images/120.jpg,houses/images/236.jpg,189,Ai,001,2020-11-21_22h20.51.729,test2,2020.2.5,MacIntel,60,,,0,188,188,188,1
,,,,z,0.847,,,,,,houses/images/121.jpg,houses/images/260.jpg,190,Ai,001,2020-11-21_22h20.51.729,test2,2020.2.5,MacIntel,60,,,0,189,189,189,1
,,,,z,1.652,,,,,,houses/images/122.jpg,houses/images/56.jpg,191,Ai,001,2020-11-21_22h20.51.729,test2,2020.2.5,MacIntel,60,,,0,190,190,190,1
,,,,m,0.953,,,,,,houses/images/123.jpg,houses/images/336.jpg,192,Ai,001,2020-11-21_22h20.51.729,test2,2020.2.5,MacIntel,60,,,0,191,191,191,1
,,,,z,0.917,,,,,,houses/images/124.jpg,houses/images/39.jpg,193,Ai,001,2020-11-21_22h20.51.729,test2,2020.2.5,MacIntel,60,,,0,192,192,192,1
,,,,z,0.896,,,,,,houses/images/225.jpg,houses/images/302.jpg,194,Ai,001,2020-11-21_22h20.51.729,test2,2020.2.5,MacIntel,60,,,0,193,193,193,1
,,,,m,2.114,,,,,,houses/images/226.jpg,houses/images/207.jpg,195,Ai,001,2020-11-21_22h20.51.729,test2,2020.2.5,MacIntel,60,,,0,194,194,194,1
,,,,z,0.755,,,,,,houses/images/127.jpg,houses/images/348.jpg,196,Ai,001,2020-11-21_22h20.51.729,test2,2020.2.5,MacIntel,60,,,0,195,195,195,1
,,,,z,1.208,,,,,,houses/images/128.jpg,houses/images/151.jpg,197,Ai,001,2020-11-21_22h20.51.729,test2,2020.2.5,MacIntel,60,,,0,196,196,196,1
,,,,m,0.965,,,,,,houses/images/129.jpg,houses/images/315.jpg,198,Ai,001,2020-11-21_22h20.51.729,test2,2020.2.5,MacIntel,60,,,0,197,197,197,1
,,,,z,0.693,,,,,,houses/images/13.jpg,houses/images/63.jpg,199,Ai,001,2020-11-21_22h20.51.729,test2,2020.2.5,MacIntel,60,,,0,198,198,198,1
,,,,m,0.793,,,,,,houses/images/307.jpg,houses/images/172.jpg,200,Ai,001,2020-11-21_22h20.51.729,test2,2020.2.5,MacIntel,60,,,0,199,199,199,1
