key_resp.keys,key_resp.rt,key_resp_3.keys,key_resp_3.rt,key_resp_2.keys,key_resp_2.rt,trials.thisRepN,trials.thisTrialN,trials.thisN,trials.thisIndex,trials.ran,image_left,image_right,trial_num,participant,session,date,expName,psychopyVersion,OS,frameRate,key_resp_4.keys,key_resp_4.rt,trials_2.thisRepN,trials_2.thisTrialN,trials_2.thisN,trials_2.thisIndex,trials_2.ran
space,1.015235,space,0.406925,m,2.78851,0,0,0,0,1,houses/images/0.jpg,houses/images/349.jpg,1,Beri,001,2020-11-20_18h16.55.967,test2,2020.2.5,Win32,60,,,,,,,
,,,,z,1.46702,0,1,1,1,1,houses/images/1.jpg,houses/images/194.jpg,2,Beri,001,2020-11-20_18h16.55.967,test2,2020.2.5,Win32,60,,,,,,,
,,,,m,1.055195,0,2,2,2,1,houses/images/10.jpg,houses/images/159.jpg,3,Beri,001,2020-11-20_18h16.55.967,test2,2020.2.5,Win32,60,,,,,,,
,,,,m,1.10756,0,3,3,3,1,houses/images/100.jpg,houses/images/42.jpg,4,Beri,001,2020-11-20_18h16.55.967,test2,2020.2.5,Win32,60,,,,,,,
,,,,m,1.26594,0,4,4,4,1,houses/images/101.jpg,houses/images/240.jpg,5,Beri,001,2020-11-20_18h16.55.967,test2,2020.2.5,Win32,60,,,,,,,
,,,,m,1.894475,0,5,5,5,1,houses/images/102.jpg,houses/images/201.jpg,6,Beri,001,2020-11-20_18h16.55.967,test2,2020.2.5,Win32,60,,,,,,,
,,,,z,1.196515,0,6,6,6,1,houses/images/103.jpg,houses/images/223.jpg,7,Beri,001,2020-11-20_18h16.55.967,test2,2020.2.5,Win32,60,,,,,,,
,,,,z,0.99321,0,7,7,7,1,houses/images/104.jpg,houses/images/46.jpg,8,Beri,001,2020-11-20_18h16.55.967,test2,2020.2.5,Win32,60,,,,,,,
,,,,z,2.717845,0,8,8,8,1,houses/images/105.jpg,houses/images/109.jpg,9,Beri,001,2020-11-20_18h16.55.967,test2,2020.2.5,Win32,60,,,,,,,
,,,,z,1.48756,0,9,9,9,1,houses/images/106.jpg,houses/images/12.jpg,10,Beri,001,2020-11-20_18h16.55.967,test2,2020.2.5,Win32,60,,,,,,,
,,,,m,2.076125,0,10,10,10,1,houses/images/107.jpg,houses/images/358.jpg,11,Beri,001,2020-11-20_18h16.55.967,test2,2020.2.5,Win32,60,,,,,,,
,,,,z,1.441655,0,11,11,11,1,houses/images/108.jpg,houses/images/197.jpg,12,Beri,001,2020-11-20_18h16.55.967,test2,2020.2.5,Win32,60,,,,,,,
,,,,m,1.17971,0,12,12,12,1,houses/images/109.jpg,houses/images/133.jpg,13,Beri,001,2020-11-20_18h16.55.967,test2,2020.2.5,Win32,60,,,,,,,
,,,,z,1.831925,0,13,13,13,1,houses/images/11.jpg,houses/images/286.jpg,14,Beri,001,2020-11-20_18h16.55.967,test2,2020.2.5,Win32,60,,,,,,,
,,,,m,2.13824,0,14,14,14,1,houses/images/210.jpg,houses/images/33.jpg,15,Beri,001,2020-11-20_18h16.55.967,test2,2020.2.5,Win32,60,,,,,,,
,,,,m,2.14656,0,15,15,15,1,houses/images/111.jpg,houses/images/156.jpg,16,Beri,001,2020-11-20_18h16.55.967,test2,2020.2.5,Win32,60,,,,,,,
,,,,m,1.34084,0,16,16,16,1,houses/images/112.jpg,houses/images/128.jpg,17,Beri,001,2020-11-20_18h16.55.967,test2,2020.2.5,Win32,60,,,,,,,
,,,,z,0.948355,0,17,17,17,1,houses/images/113.jpg,houses/images/306.jpg,18,Beri,001,2020-11-20_18h16.55.967,test2,2020.2.5,Win32,60,,,,,,,
,,,,z,0.930195,0,18,18,18,1,houses/images/114.jpg,houses/images/272.jpg,19,Beri,001,2020-11-20_18h16.55.967,test2,2020.2.5,Win32,60,,,,,,,
,,,,m,0.988425,0,19,19,19,1,houses/images/115.jpg,houses/images/112.jpg,20,Beri,001,2020-11-20_18h16.55.967,test2,2020.2.5,Win32,60,,,,,,,
,,,,m,1.08016,0,20,20,20,1,houses/images/116.jpg,houses/images/101.jpg,21,Beri,001,2020-11-20_18h16.55.967,test2,2020.2.5,Win32,60,,,,,,,
,,,,z,1.172975,0,21,21,21,1,houses/images/117.jpg,houses/images/298.jpg,22,Beri,001,2020-11-20_18h16.55.967,test2,2020.2.5,Win32,60,,,,,,,
,,,,m,1.06003,0,22,22,22,1,houses/images/118.jpg,houses/images/80.jpg,23,Beri,001,2020-11-20_18h16.55.967,test2,2020.2.5,Win32,60,,,,,,,
,,,,m,1.620295,0,23,23,23,1,houses/images/119.jpg,houses/images/329.jpg,24,Beri,001,2020-11-20_18h16.55.967,test2,2020.2.5,Win32,60,,,,,,,
,,,,m,1.226615,0,24,24,24,1,houses/images/12.jpg,houses/images/320.jpg,25,Beri,001,2020-11-20_18h16.55.967,test2,2020.2.5,Win32,60,,,,,,,
,,,,m,1.48262,0,25,25,25,1,houses/images/120.jpg,houses/images/24.jpg,26,Beri,001,2020-11-20_18h16.55.967,test2,2020.2.5,Win32,60,,,,,,,
,,,,z,5.33729,0,26,26,26,1,houses/images/121.jpg,houses/images/341.jpg,27,Beri,001,2020-11-20_18h16.55.967,test2,2020.2.5,Win32,60,,,,,,,
,,,,m,3.70976,0,27,27,27,1,houses/images/122.jpg,houses/images/38.jpg,28,Beri,001,2020-11-20_18h16.55.967,test2,2020.2.5,Win32,60,,,,,,,
,,,,z,2.65164,0,28,28,28,1,houses/images/123.jpg,houses/images/98.jpg,29,Beri,001,2020-11-20_18h16.55.967,test2,2020.2.5,Win32,60,,,,,,,
,,,,z,4.336035,0,29,29,29,1,houses/images/124.jpg,houses/images/213.jpg,30,Beri,001,2020-11-20_18h16.55.967,test2,2020.2.5,Win32,60,,,,,,,
,,,,z,0.98788,0,30,30,30,1,houses/images/225.jpg,houses/images/208.jpg,31,Beri,001,2020-11-20_18h16.55.967,test2,2020.2.5,Win32,60,,,,,,,
,,,,m,4.11403,0,31,31,31,1,houses/images/226.jpg,houses/images/210.jpg,32,Beri,001,2020-11-20_18h16.55.967,test2,2020.2.5,Win32,60,,,,,,,
,,,,z,0.992085,0,32,32,32,1,houses/images/127.jpg,houses/images/90.jpg,33,Beri,001,2020-11-20_18h16.55.967,test2,2020.2.5,Win32,60,,,,,,,
,,,,m,9.28995,0,33,33,33,1,houses/images/128.jpg,houses/images/113.jpg,34,Beri,001,2020-11-20_18h16.55.967,test2,2020.2.5,Win32,60,,,,,,,
,,,,m,2.09901,0,34,34,34,1,houses/images/129.jpg,houses/images/232.jpg,35,Beri,001,2020-11-20_18h16.55.967,test2,2020.2.5,Win32,60,,,,,,,
,,,,z,3.241385,0,35,35,35,1,houses/images/13.jpg,houses/images/359.jpg,36,Beri,001,2020-11-20_18h16.55.967,test2,2020.2.5,Win32,60,,,,,,,
,,,,m,1.313445,0,36,36,36,1,houses/images/130.jpg,houses/images/187.jpg,37,Beri,001,2020-11-20_18h16.55.967,test2,2020.2.5,Win32,60,,,,,,,
,,,,z,1.03208,0,37,37,37,1,houses/images/131.jpg,houses/images/275.jpg,38,Beri,001,2020-11-20_18h16.55.967,test2,2020.2.5,Win32,60,,,,,,,
,,,,m,2.18728,0,38,38,38,1,houses/images/132.jpg,houses/images/162.jpg,39,Beri,001,2020-11-20_18h16.55.967,test2,2020.2.5,Win32,60,,,,,,,
,,,,m,1.58099,0,39,39,39,1,houses/images/133.jpg,houses/images/311.jpg,40,Beri,001,2020-11-20_18h16.55.967,test2,2020.2.5,Win32,60,,,,,,,
,,,,m,1.21719,0,40,40,40,1,houses/images/134.jpg,houses/images/277.jpg,41,Beri,001,2020-11-20_18h16.55.967,test2,2020.2.5,Win32,60,,,,,,,
,,,,m,1.07511,0,41,41,41,1,houses/images/135.jpg,houses/images/71.jpg,42,Beri,001,2020-11-20_18h16.55.967,test2,2020.2.5,Win32,60,,,,,,,
,,,,m,0.78658,0,42,42,42,1,houses/images/236.jpg,houses/images/72.jpg,43,Beri,001,2020-11-20_18h16.55.967,test2,2020.2.5,Win32,60,,,,,,,
,,,,m,2.735595,0,43,43,43,1,houses/images/137.jpg,houses/images/246.jpg,44,Beri,001,2020-11-20_18h16.55.967,test2,2020.2.5,Win32,60,,,,,,,
,,,,z,1.445355,0,44,44,44,1,houses/images/138.jpg,houses/images/174.jpg,45,Beri,001,2020-11-20_18h16.55.967,test2,2020.2.5,Win32,60,,,,,,,
,,,,m,0.90125,0,45,45,45,1,houses/images/239.jpg,houses/images/292.jpg,46,Beri,001,2020-11-20_18h16.55.967,test2,2020.2.5,Win32,60,,,,,,,
,,,,z,2.47905,0,46,46,46,1,houses/images/14.jpg,houses/images/194.jpg,47,Beri,001,2020-11-20_18h16.55.967,test2,2020.2.5,Win32,60,,,,,,,
,,,,m,1.703985,0,47,47,47,1,houses/images/240.jpg,houses/images/180.jpg,48,Beri,001,2020-11-20_18h16.55.967,test2,2020.2.5,Win32,60,,,,,,,
,,,,m,1.891535,0,48,48,48,1,houses/images/141.jpg,houses/images/262.jpg,49,Beri,001,2020-11-20_18h16.55.967,test2,2020.2.5,Win32,60,,,,,,,
,,,,z,3.10402,0,49,49,49,1,houses/images/42.jpg,houses/images/118.jpg,50,Beri,001,2020-11-20_18h16.55.967,test2,2020.2.5,Win32,60,,,,,,,
,,,,z,4.397005,0,50,50,50,1,houses/images/143.jpg,houses/images/316.jpg,51,Beri,001,2020-11-20_18h16.55.967,test2,2020.2.5,Win32,60,,,,,,,
,,,,m,1.152175,0,51,51,51,1,houses/images/144.jpg,houses/images/29.jpg,52,Beri,001,2020-11-20_18h16.55.967,test2,2020.2.5,Win32,60,,,,,,,
,,,,m,1.96736,0,52,52,52,1,houses/images/145.jpg,houses/images/146.jpg,53,Beri,001,2020-11-20_18h16.55.967,test2,2020.2.5,Win32,60,,,,,,,
,,,,z,0.86167,0,53,53,53,1,houses/images/146.jpg,houses/images/342.jpg,54,Beri,001,2020-11-20_18h16.55.967,test2,2020.2.5,Win32,60,,,,,,,
,,,,m,0.80246,0,54,54,54,1,houses/images/147.jpg,houses/images/120.jpg,55,Beri,001,2020-11-20_18h16.55.967,test2,2020.2.5,Win32,60,,,,,,,
,,,,m,1.225465,0,55,55,55,1,houses/images/148.jpg,houses/images/204.jpg,56,Beri,001,2020-11-20_18h16.55.967,test2,2020.2.5,Win32,60,,,,,,,
,,,,m,0.744885,0,56,56,56,1,houses/images/149.jpg,houses/images/292.jpg,57,Beri,001,2020-11-20_18h16.55.967,test2,2020.2.5,Win32,60,,,,,,,
,,,,z,26.949395,0,57,57,57,1,houses/images/15.jpg,houses/images/191.jpg,58,Beri,001,2020-11-20_18h16.55.967,test2,2020.2.5,Win32,60,,,,,,,
,,,,z,1.802125,0,58,58,58,1,houses/images/150.jpg,houses/images/318.jpg,59,Beri,001,2020-11-20_18h16.55.967,test2,2020.2.5,Win32,60,,,,,,,
,,,,z,0.965055,0,59,59,59,1,houses/images/151.jpg,houses/images/255.jpg,60,Beri,001,2020-11-20_18h16.55.967,test2,2020.2.5,Win32,60,,,,,,,
,,,,m,1.13742,0,60,60,60,1,houses/images/152.jpg,houses/images/261.jpg,61,Beri,001,2020-11-20_18h16.55.967,test2,2020.2.5,Win32,60,,,,,,,
,,,,z,1.184305,0,61,61,61,1,houses/images/253.jpg,houses/images/129.jpg,62,Beri,001,2020-11-20_18h16.55.967,test2,2020.2.5,Win32,60,,,,,,,
,,,,m,1.42161,0,62,62,62,1,houses/images/154.jpg,houses/images/36.jpg,63,Beri,001,2020-11-20_18h16.55.967,test2,2020.2.5,Win32,60,,,,,,,
,,,,z,1.08329,0,63,63,63,1,houses/images/155.jpg,houses/images/210.jpg,64,Beri,001,2020-11-20_18h16.55.967,test2,2020.2.5,Win32,60,,,,,,,
,,,,m,0.965565,0,64,64,64,1,houses/images/156.jpg,houses/images/132.jpg,65,Beri,001,2020-11-20_18h16.55.967,test2,2020.2.5,Win32,60,,,,,,,
,,,,m,6.80105,0,65,65,65,1,houses/images/157.jpg,houses/images/70.jpg,66,Beri,001,2020-11-20_18h16.55.967,test2,2020.2.5,Win32,60,,,,,,,
,,,,m,1.232865,0,66,66,66,1,houses/images/158.jpg,houses/images/199.jpg,67,Beri,001,2020-11-20_18h16.55.967,test2,2020.2.5,Win32,60,,,,,,,
,,,,z,1.183125,0,67,67,67,1,houses/images/159.jpg,houses/images/226.jpg,68,Beri,001,2020-11-20_18h16.55.967,test2,2020.2.5,Win32,60,,,,,,,
,,,,m,4.19348,0,68,68,68,1,houses/images/16.jpg,houses/images/50.jpg,69,Beri,001,2020-11-20_18h16.55.967,test2,2020.2.5,Win32,60,,,,,,,
,,,,z,5.575835,0,69,69,69,1,houses/images/160.jpg,houses/images/239.jpg,70,Beri,001,2020-11-20_18h16.55.967,test2,2020.2.5,Win32,60,,,,,,,
,,,,m,1.139215,0,70,70,70,1,houses/images/161.jpg,houses/images/289.jpg,71,Beri,001,2020-11-20_18h16.55.967,test2,2020.2.5,Win32,60,,,,,,,
,,,,z,1.690355,0,71,71,71,1,houses/images/162.jpg,houses/images/325.jpg,72,Beri,001,2020-11-20_18h16.55.967,test2,2020.2.5,Win32,60,,,,,,,
,,,,z,0.806445,0,72,72,72,1,houses/images/163.jpg,houses/images/259.jpg,73,Beri,001,2020-11-20_18h16.55.967,test2,2020.2.5,Win32,60,,,,,,,
,,,,z,0.941095,0,73,73,73,1,houses/images/164.jpg,houses/images/316.jpg,74,Beri,001,2020-11-20_18h16.55.967,test2,2020.2.5,Win32,60,,,,,,,
,,,,z,7.17045,0,74,74,74,1,houses/images/165.jpg,houses/images/311.jpg,75,Beri,001,2020-11-20_18h16.55.967,test2,2020.2.5,Win32,60,,,,,,,
,,,,m,2.3879,0,75,75,75,1,houses/images/166.jpg,houses/images/246.jpg,76,Beri,001,2020-11-20_18h16.55.967,test2,2020.2.5,Win32,60,,,,,,,
,,,,m,1.130675,0,76,76,76,1,houses/images/167.jpg,houses/images/269.jpg,77,Beri,001,2020-11-20_18h16.55.967,test2,2020.2.5,Win32,60,,,,,,,
,,,,z,0.974135,0,77,77,77,1,houses/images/168.jpg,houses/images/360.jpg,78,Beri,001,2020-11-20_18h16.55.967,test2,2020.2.5,Win32,60,,,,,,,
,,,,m,1.10945,0,78,78,78,1,houses/images/169.jpg,houses/images/116.jpg,79,Beri,001,2020-11-20_18h16.55.967,test2,2020.2.5,Win32,60,,,,,,,
,,,,z,1.290645,0,79,79,79,1,houses/images/17.jpg,houses/images/245.jpg,80,Beri,001,2020-11-20_18h16.55.967,test2,2020.2.5,Win32,60,,,,,,,
,,,,m,1.22284,0,80,80,80,1,houses/images/170.jpg,houses/images/152.jpg,81,Beri,001,2020-11-20_18h16.55.967,test2,2020.2.5,Win32,60,,,,,,,
,,,,z,1.50642,0,81,81,81,1,houses/images/171.jpg,houses/images/77.jpg,82,Beri,001,2020-11-20_18h16.55.967,test2,2020.2.5,Win32,60,,,,,,,
,,,,z,1.85972,0,82,82,82,1,houses/images/172.jpg,houses/images/154.jpg,83,Beri,001,2020-11-20_18h16.55.967,test2,2020.2.5,Win32,60,,,,,,,
,,,,z,11.38697,0,83,83,83,1,houses/images/273.jpg,houses/images/210.jpg,84,Beri,001,2020-11-20_18h16.55.967,test2,2020.2.5,Win32,60,,,,,,,
,,,,z,1.55364,0,84,84,84,1,houses/images/174.jpg,houses/images/121.jpg,85,Beri,001,2020-11-20_18h16.55.967,test2,2020.2.5,Win32,60,,,,,,,
,,,,m,1.05423,0,85,85,85,1,houses/images/175.jpg,houses/images/47.jpg,86,Beri,001,2020-11-20_18h16.55.967,test2,2020.2.5,Win32,60,,,,,,,
,,,,m,1.388325,0,86,86,86,1,houses/images/176.jpg,houses/images/328.jpg,87,Beri,001,2020-11-20_18h16.55.967,test2,2020.2.5,Win32,60,,,,,,,
,,,,m,0.99111,0,87,87,87,1,houses/images/177.jpg,houses/images/35.jpg,88,Beri,001,2020-11-20_18h16.55.967,test2,2020.2.5,Win32,60,,,,,,,
,,,,m,1.47002,0,88,88,88,1,houses/images/178.jpg,houses/images/299.jpg,89,Beri,001,2020-11-20_18h16.55.967,test2,2020.2.5,Win32,60,,,,,,,
,,,,z,1.660995,0,89,89,89,1,houses/images/179.jpg,houses/images/283.jpg,90,Beri,001,2020-11-20_18h16.55.967,test2,2020.2.5,Win32,60,,,,,,,
,,,,m,1.22791,0,90,90,90,1,houses/images/18.jpg,houses/images/182.jpg,91,Beri,001,2020-11-20_18h16.55.967,test2,2020.2.5,Win32,60,,,,,,,
,,,,z,0.892255,0,91,91,91,1,houses/images/180.jpg,houses/images/327.jpg,92,Beri,001,2020-11-20_18h16.55.967,test2,2020.2.5,Win32,60,,,,,,,
,,,,m,1.35678,0,92,92,92,1,houses/images/281.jpg,houses/images/334.jpg,93,Beri,001,2020-11-20_18h16.55.967,test2,2020.2.5,Win32,60,,,,,,,
,,,,z,0.898195,0,93,93,93,1,houses/images/182.jpg,houses/images/75.jpg,94,Beri,001,2020-11-20_18h16.55.967,test2,2020.2.5,Win32,60,,,,,,,
,,,,m,0.912995,0,94,94,94,1,houses/images/183.jpg,houses/images/137.jpg,95,Beri,001,2020-11-20_18h16.55.967,test2,2020.2.5,Win32,60,,,,,,,
,,,,m,0.73015,0,95,95,95,1,houses/images/184.jpg,houses/images/344.jpg,96,Beri,001,2020-11-20_18h16.55.967,test2,2020.2.5,Win32,60,,,,,,,
,,,,m,0.925075,0,96,96,96,1,houses/images/185.jpg,houses/images/285.jpg,97,Beri,001,2020-11-20_18h16.55.967,test2,2020.2.5,Win32,60,,,,,,,
,,,,m,0.785735,0,97,97,97,1,houses/images/186.jpg,houses/images/230.jpg,98,Beri,001,2020-11-20_18h16.55.967,test2,2020.2.5,Win32,60,,,,,,,
,,,,m,0.60112,0,98,98,98,1,houses/images/187.jpg,houses/images/3.jpg,99,Beri,001,2020-11-20_18h16.55.967,test2,2020.2.5,Win32,60,,,,,,,
,,,,z,0.725605,0,99,99,99,1,houses/images/188.jpg,houses/images/304.jpg,100,Beri,001,2020-11-20_18h16.55.967,test2,2020.2.5,Win32,60,,,,,,,
,,,,m,0.88501,0,100,100,100,1,houses/images/189.jpg,houses/images/17.jpg,101,Beri,001,2020-11-20_18h16.55.967,test2,2020.2.5,Win32,60,,,,,,,
,,,,z,1.52938,0,101,101,101,1,houses/images/19.jpg,houses/images/351.jpg,102,Beri,001,2020-11-20_18h16.55.967,test2,2020.2.5,Win32,60,,,,,,,
,,,,m,1.476605,0,102,102,102,1,houses/images/190.jpg,houses/images/307.jpg,103,Beri,001,2020-11-20_18h16.55.967,test2,2020.2.5,Win32,60,,,,,,,
,,,,m,1.88371,0,103,103,103,1,houses/images/191.jpg,houses/images/326.jpg,104,Beri,001,2020-11-20_18h16.55.967,test2,2020.2.5,Win32,60,,,,,,,
,,,,z,0.89913,0,104,104,104,1,houses/images/292.jpg,houses/images/240.jpg,105,Beri,001,2020-11-20_18h16.55.967,test2,2020.2.5,Win32,60,,,,,,,
,,,,m,1.7966,0,105,105,105,1,houses/images/193.jpg,houses/images/243.jpg,106,Beri,001,2020-11-20_18h16.55.967,test2,2020.2.5,Win32,60,,,,,,,
,,,,m,2.1404,0,106,106,106,1,houses/images/194.jpg,houses/images/291.jpg,107,Beri,001,2020-11-20_18h16.55.967,test2,2020.2.5,Win32,60,,,,,,,
,,,,z,5.32629,0,107,107,107,1,houses/images/195.jpg,houses/images/361.jpg,108,Beri,001,2020-11-20_18h16.55.967,test2,2020.2.5,Win32,60,,,,,,,
,,,,m,0.7314,0,108,108,108,1,houses/images/196.jpg,houses/images/30.jpg,109,Beri,001,2020-11-20_18h16.55.967,test2,2020.2.5,Win32,60,,,,,,,
,,,,m,1.47251,0,109,109,109,1,houses/images/197.jpg,houses/images/22.jpg,110,Beri,001,2020-11-20_18h16.55.967,test2,2020.2.5,Win32,60,,,,,,,
,,,,m,2.37378,0,110,110,110,1,houses/images/198.jpg,houses/images/250.jpg,111,Beri,001,2020-11-20_18h16.55.967,test2,2020.2.5,Win32,60,,,,,,,
,,,,z,3.21943,0,111,111,111,1,houses/images/199.jpg,houses/images/323.jpg,112,Beri,001,2020-11-20_18h16.55.967,test2,2020.2.5,Win32,60,,,,,,,
,,,,m,1.5225,0,112,112,112,1,houses/images/2.jpg,houses/images/187.jpg,113,Beri,001,2020-11-20_18h16.55.967,test2,2020.2.5,Win32,60,,,,,,,
,,,,z,3.946035,0,113,113,113,1,houses/images/20.jpg,houses/images/100.jpg,114,Beri,001,2020-11-20_18h16.55.967,test2,2020.2.5,Win32,60,,,,,,,
,,,,z,1.32762,0,114,114,114,1,houses/images/200.jpg,houses/images/238.jpg,115,Beri,001,2020-11-20_18h16.55.967,test2,2020.2.5,Win32,60,,,,,,,
,,,,z,0.878205,0,115,115,115,1,houses/images/201.jpg,houses/images/58.jpg,116,Beri,001,2020-11-20_18h16.55.967,test2,2020.2.5,Win32,60,,,,,,,
,,,,z,0.83306,0,116,116,116,1,houses/images/202.jpg,houses/images/205.jpg,117,Beri,001,2020-11-20_18h16.55.967,test2,2020.2.5,Win32,60,,,,,,,
,,,,z,0.760255,0,117,117,117,1,houses/images/203.jpg,houses/images/40.jpg,118,Beri,001,2020-11-20_18h16.55.967,test2,2020.2.5,Win32,60,,,,,,,
,,,,z,0.933875,0,118,118,118,1,houses/images/204.jpg,houses/images/64.jpg,119,Beri,001,2020-11-20_18h16.55.967,test2,2020.2.5,Win32,60,,,,,,,
,,,,z,1.814925,0,119,119,119,1,houses/images/205.jpg,houses/images/155.jpg,120,Beri,001,2020-11-20_18h16.55.967,test2,2020.2.5,Win32,60,,,,,,,
,,,,m,1.042305,0,120,120,120,1,houses/images/206.jpg,houses/images/199.jpg,121,Beri,001,2020-11-20_18h16.55.967,test2,2020.2.5,Win32,60,,,,,,,
,,,,m,1.263275,0,121,121,121,1,houses/images/207.jpg,houses/images/233.jpg,122,Beri,001,2020-11-20_18h16.55.967,test2,2020.2.5,Win32,60,,,,,,,
,,,,m,0.90944,0,122,122,122,1,houses/images/208.jpg,houses/images/8.jpg,123,Beri,001,2020-11-20_18h16.55.967,test2,2020.2.5,Win32,60,,,,,,,
,,,,z,1.36737,0,123,123,123,1,houses/images/209.jpg,houses/images/167.jpg,124,Beri,001,2020-11-20_18h16.55.967,test2,2020.2.5,Win32,60,,,,,,,
,,,,m,0.881545,0,124,124,124,1,houses/images/21.jpg,houses/images/103.jpg,125,Beri,001,2020-11-20_18h16.55.967,test2,2020.2.5,Win32,60,,,,,,,
,,,,m,2.781925,0,125,125,125,1,houses/images/210.jpg,houses/images/104.jpg,126,Beri,001,2020-11-20_18h16.55.967,test2,2020.2.5,Win32,60,,,,,,,
,,,,z,1.40391,0,126,126,126,1,houses/images/211.jpg,houses/images/327.jpg,127,Beri,001,2020-11-20_18h16.55.967,test2,2020.2.5,Win32,60,,,,,,,
,,,,m,0.663685,0,127,127,127,1,houses/images/212.jpg,houses/images/253.jpg,128,Beri,001,2020-11-20_18h16.55.967,test2,2020.2.5,Win32,60,,,,,,,
,,,,m,1.704565,0,128,128,128,1,houses/images/213.jpg,houses/images/26.jpg,129,Beri,001,2020-11-20_18h16.55.967,test2,2020.2.5,Win32,60,,,,,,,
,,,,m,1.37491,0,129,129,129,1,houses/images/214.jpg,houses/images/198.jpg,130,Beri,001,2020-11-20_18h16.55.967,test2,2020.2.5,Win32,60,,,,,,,
,,,,m,1.95598,0,130,130,130,1,houses/images/215.jpg,houses/images/4.jpg,131,Beri,001,2020-11-20_18h16.55.967,test2,2020.2.5,Win32,60,,,,,,,
,,,,m,0.87107,0,131,131,131,1,houses/images/316.jpg,houses/images/62.jpg,132,Beri,001,2020-11-20_18h16.55.967,test2,2020.2.5,Win32,60,,,,,,,
,,,,z,0.997525,0,132,132,132,1,houses/images/217.jpg,houses/images/114.jpg,133,Beri,001,2020-11-20_18h16.55.967,test2,2020.2.5,Win32,60,,,,,,,
,,,,m,2.04438,0,133,133,133,1,houses/images/318.jpg,houses/images/308.jpg,134,Beri,001,2020-11-20_18h16.55.967,test2,2020.2.5,Win32,60,,,,,,,
,,,,z,10.48089,0,134,134,134,1,houses/images/219.jpg,houses/images/254.jpg,135,Beri,001,2020-11-20_18h16.55.967,test2,2020.2.5,Win32,60,,,,,,,
,,,,z,1.69502,0,135,135,135,1,houses/images/22.jpg,houses/images/170.jpg,136,Beri,001,2020-11-20_18h16.55.967,test2,2020.2.5,Win32,60,,,,,,,
,,,,m,0.85125,0,136,136,136,1,houses/images/220.jpg,houses/images/179.jpg,137,Beri,001,2020-11-20_18h16.55.967,test2,2020.2.5,Win32,60,,,,,,,
,,,,z,0.822485,0,137,137,137,1,houses/images/221.jpg,houses/images/238.jpg,138,Beri,001,2020-11-20_18h16.55.967,test2,2020.2.5,Win32,60,,,,,,,
,,,,m,0.99672,0,138,138,138,1,houses/images/222.jpg,houses/images/256.jpg,139,Beri,001,2020-11-20_18h16.55.967,test2,2020.2.5,Win32,60,,,,,,,
,,,,z,1.164495,0,139,139,139,1,houses/images/223.jpg,houses/images/322.jpg,140,Beri,001,2020-11-20_18h16.55.967,test2,2020.2.5,Win32,60,,,,,,,
,,,,z,0.797785,0,140,140,140,1,houses/images/224.jpg,houses/images/209.jpg,141,Beri,001,2020-11-20_18h16.55.967,test2,2020.2.5,Win32,60,,,,,,,
,,,,m,1.67544,0,141,141,141,1,houses/images/225.jpg,houses/images/219.jpg,142,Beri,001,2020-11-20_18h16.55.967,test2,2020.2.5,Win32,60,,,,,,,
,,,,m,0.841185,0,142,142,142,1,houses/images/226.jpg,houses/images/79.jpg,143,Beri,001,2020-11-20_18h16.55.967,test2,2020.2.5,Win32,60,,,,,,,
,,,,m,0.67378,0,143,143,143,1,houses/images/227.jpg,houses/images/279.jpg,144,Beri,001,2020-11-20_18h16.55.967,test2,2020.2.5,Win32,60,,,,,,,
,,,,z,0.81143,0,144,144,144,1,houses/images/228.jpg,houses/images/111.jpg,145,Beri,001,2020-11-20_18h16.55.967,test2,2020.2.5,Win32,60,,,,,,,
,,,,m,1.025985,0,145,145,145,1,houses/images/229.jpg,houses/images/257.jpg,146,Beri,001,2020-11-20_18h16.55.967,test2,2020.2.5,Win32,60,,,,,,,
,,,,m,1.05833,0,146,146,146,1,houses/images/23.jpg,houses/images/318.jpg,147,Beri,001,2020-11-20_18h16.55.967,test2,2020.2.5,Win32,60,,,,,,,
,,,,m,0.89274,0,147,147,147,1,houses/images/230.jpg,houses/images/312.jpg,148,Beri,001,2020-11-20_18h16.55.967,test2,2020.2.5,Win32,60,,,,,,,
,,,,m,0.64292,0,148,148,148,1,houses/images/231.jpg,houses/images/253.jpg,149,Beri,001,2020-11-20_18h16.55.967,test2,2020.2.5,Win32,60,,,,,,,
,,,,z,1.068425,0,149,149,149,1,houses/images/232.jpg,houses/images/236.jpg,150,Beri,001,2020-11-20_18h16.55.967,test2,2020.2.5,Win32,60,,,,,,,
,,,,m,0.680305,0,150,150,150,1,houses/images/233.jpg,houses/images/66.jpg,151,Beri,001,2020-11-20_18h16.55.967,test2,2020.2.5,Win32,60,,,,,,,
,,,,m,0.902315,0,151,151,151,1,houses/images/234.jpg,houses/images/138.jpg,152,Beri,001,2020-11-20_18h16.55.967,test2,2020.2.5,Win32,60,,,,,,,
,,,,z,2.069425,0,152,152,152,1,houses/images/235.jpg,houses/images/124.jpg,153,Beri,001,2020-11-20_18h16.55.967,test2,2020.2.5,Win32,60,,,,,,,
,,,,z,1.624165,0,153,153,153,1,houses/images/236.jpg,houses/images/160.jpg,154,Beri,001,2020-11-20_18h16.55.967,test2,2020.2.5,Win32,60,,,,,,,
,,,,z,4.022115,0,154,154,154,1,houses/images/237.jpg,houses/images/314.jpg,155,Beri,001,2020-11-20_18h16.55.967,test2,2020.2.5,Win32,60,,,,,,,
,,,,m,1.1411,0,155,155,155,1,houses/images/238.jpg,houses/images/145.jpg,156,Beri,001,2020-11-20_18h16.55.967,test2,2020.2.5,Win32,60,,,,,,,
,,,,m,2.135815,0,156,156,156,1,houses/images/239.jpg,houses/images/195.jpg,157,Beri,001,2020-11-20_18h16.55.967,test2,2020.2.5,Win32,60,,,,,,,
,,,,m,0.8956,0,157,157,157,1,houses/images/24.jpg,houses/images/0.jpg,158,Beri,001,2020-11-20_18h16.55.967,test2,2020.2.5,Win32,60,,,,,,,
,,,,z,1.45101,0,158,158,158,1,houses/images/240.jpg,houses/images/81.jpg,159,Beri,001,2020-11-20_18h16.55.967,test2,2020.2.5,Win32,60,,,,,,,
,,,,z,0.80951,0,159,159,159,1,houses/images/241.jpg,houses/images/226.jpg,160,Beri,001,2020-11-20_18h16.55.967,test2,2020.2.5,Win32,60,,,,,,,
,,,,m,0.66564,0,160,160,160,1,houses/images/342.jpg,houses/images/319.jpg,161,Beri,001,2020-11-20_18h16.55.967,test2,2020.2.5,Win32,60,,,,,,,
,,,,z,1.61747,0,161,161,161,1,houses/images/243.jpg,houses/images/23.jpg,162,Beri,001,2020-11-20_18h16.55.967,test2,2020.2.5,Win32,60,,,,,,,
,,,,m,0.88668,0,162,162,162,1,houses/images/244.jpg,houses/images/146.jpg,163,Beri,001,2020-11-20_18h16.55.967,test2,2020.2.5,Win32,60,,,,,,,
,,,,m,4.02575,0,163,163,163,1,houses/images/245.jpg,houses/images/28.jpg,164,Beri,001,2020-11-20_18h16.55.967,test2,2020.2.5,Win32,60,,,,,,,
,,,,z,0.920435,0,164,164,164,1,houses/images/246.jpg,houses/images/157.jpg,165,Beri,001,2020-11-20_18h16.55.967,test2,2020.2.5,Win32,60,,,,,,,
,,,,z,0.81521,0,165,165,165,1,houses/images/247.jpg,houses/images/2.jpg,166,Beri,001,2020-11-20_18h16.55.967,test2,2020.2.5,Win32,60,,,,,,,
,,,,m,1.28796,0,166,166,166,1,houses/images/248.jpg,houses/images/87.jpg,167,Beri,001,2020-11-20_18h16.55.967,test2,2020.2.5,Win32,60,,,,,,,
,,,,m,0.974175,0,167,167,167,1,houses/images/249.jpg,houses/images/270.jpg,168,Beri,001,2020-11-20_18h16.55.967,test2,2020.2.5,Win32,60,,,,,,,
,,,,m,0.95624,0,168,168,168,1,houses/images/25.jpg,houses/images/67.jpg,169,Beri,001,2020-11-20_18h16.55.967,test2,2020.2.5,Win32,60,,,,,,,
,,,,z,1.28622,0,169,169,169,1,houses/images/250.jpg,houses/images/234.jpg,170,Beri,001,2020-11-20_18h16.55.967,test2,2020.2.5,Win32,60,,,,,,,
,,,,z,0.67609,0,170,170,170,1,houses/images/251.jpg,houses/images/16.jpg,171,Beri,001,2020-11-20_18h16.55.967,test2,2020.2.5,Win32,60,,,,,,,
,,,,z,1.64676,0,171,171,171,1,houses/images/252.jpg,houses/images/12.jpg,172,Beri,001,2020-11-20_18h16.55.967,test2,2020.2.5,Win32,60,,,,,,,
,,,,m,1.33373,0,172,172,172,1,houses/images/253.jpg,houses/images/185.jpg,173,Beri,001,2020-11-20_18h16.55.967,test2,2020.2.5,Win32,60,,,,,,,
,,,,m,1.015285,0,173,173,173,1,houses/images/254.jpg,houses/images/39.jpg,174,Beri,001,2020-11-20_18h16.55.967,test2,2020.2.5,Win32,60,,,,,,,
,,,,m,0.87392,0,174,174,174,1,houses/images/255.jpg,houses/images/237.jpg,175,Beri,001,2020-11-20_18h16.55.967,test2,2020.2.5,Win32,60,,,,,,,
,,,,z,1.052935,0,175,175,175,1,houses/images/256.jpg,houses/images/356.jpg,176,Beri,001,2020-11-20_18h16.55.967,test2,2020.2.5,Win32,60,,,,,,,
,,,,z,1.049165,0,176,176,176,1,houses/images/257.jpg,houses/images/107.jpg,177,Beri,001,2020-11-20_18h16.55.967,test2,2020.2.5,Win32,60,,,,,,,
,,,,m,0.72717,0,177,177,177,1,houses/images/258.jpg,houses/images/84.jpg,178,Beri,001,2020-11-20_18h16.55.967,test2,2020.2.5,Win32,60,,,,,,,
,,,,z,1.07849,0,178,178,178,1,houses/images/259.jpg,houses/images/119.jpg,179,Beri,001,2020-11-20_18h16.55.967,test2,2020.2.5,Win32,60,,,,,,,
,,,,z,1.0192,0,179,179,179,1,houses/images/26.jpg,houses/images/227.jpg,180,Beri,001,2020-11-20_18h16.55.967,test2,2020.2.5,Win32,60,,,,,,,
,,,,z,1.015605,0,180,180,180,1,houses/images/260.jpg,houses/images/238.jpg,181,Beri,001,2020-11-20_18h16.55.967,test2,2020.2.5,Win32,60,,,,,,,
,,,,m,1.518805,0,181,181,181,1,houses/images/261.jpg,houses/images/337.jpg,182,Beri,001,2020-11-20_18h16.55.967,test2,2020.2.5,Win32,60,,,,,,,
,,,,z,4.84422,0,182,182,182,1,houses/images/262.jpg,houses/images/214.jpg,183,Beri,001,2020-11-20_18h16.55.967,test2,2020.2.5,Win32,60,,,,,,,
,,,,z,0.91134,0,183,183,183,1,houses/images/263.jpg,houses/images/239.jpg,184,Beri,001,2020-11-20_18h16.55.967,test2,2020.2.5,Win32,60,,,,,,,
,,,,z,1.55205,0,184,184,184,1,houses/images/264.jpg,houses/images/149.jpg,185,Beri,001,2020-11-20_18h16.55.967,test2,2020.2.5,Win32,60,,,,,,,
,,,,m,2.044865,0,185,185,185,1,houses/images/265.jpg,houses/images/68.jpg,186,Beri,001,2020-11-20_18h16.55.967,test2,2020.2.5,Win32,60,,,,,,,
,,,,m,1.322265,0,186,186,186,1,houses/images/266.jpg,houses/images/271.jpg,187,Beri,001,2020-11-20_18h16.55.967,test2,2020.2.5,Win32,60,,,,,,,
,,,,z,1.72097,0,187,187,187,1,houses/images/267.jpg,houses/images/87.jpg,188,Beri,001,2020-11-20_18h16.55.967,test2,2020.2.5,Win32,60,,,,,,,
,,,,m,2.85391,0,188,188,188,1,houses/images/268.jpg,houses/images/348.jpg,189,Beri,001,2020-11-20_18h16.55.967,test2,2020.2.5,Win32,60,,,,,,,
,,,,m,1.112745,0,189,189,189,1,houses/images/269.jpg,houses/images/228.jpg,190,Beri,001,2020-11-20_18h16.55.967,test2,2020.2.5,Win32,60,,,,,,,
,,,,m,0.95908,0,190,190,190,1,houses/images/27.jpg,houses/images/317.jpg,191,Beri,001,2020-11-20_18h16.55.967,test2,2020.2.5,Win32,60,,,,,,,
,,,,m,2.29177,0,191,191,191,1,houses/images/270.jpg,houses/images/10.jpg,192,Beri,001,2020-11-20_18h16.55.967,test2,2020.2.5,Win32,60,,,,,,,
,,,,m,0.63409,0,192,192,192,1,houses/images/271.jpg,houses/images/222.jpg,193,Beri,001,2020-11-20_18h16.55.967,test2,2020.2.5,Win32,60,,,,,,,
,,,,m,0.800805,0,193,193,193,1,houses/images/272.jpg,houses/images/314.jpg,194,Beri,001,2020-11-20_18h16.55.967,test2,2020.2.5,Win32,60,,,,,,,
,,,,z,1.3149,0,194,194,194,1,houses/images/273.jpg,houses/images/28.jpg,195,Beri,001,2020-11-20_18h16.55.967,test2,2020.2.5,Win32,60,,,,,,,
,,,,z,1.05315,0,195,195,195,1,houses/images/174.jpg,houses/images/294.jpg,196,Beri,001,2020-11-20_18h16.55.967,test2,2020.2.5,Win32,60,,,,,,,
,,,,z,0.804665,0,196,196,196,1,houses/images/275.jpg,houses/images/60.jpg,197,Beri,001,2020-11-20_18h16.55.967,test2,2020.2.5,Win32,60,,,,,,,
,,,,z,1.023865,0,197,197,197,1,houses/images/276.jpg,houses/images/144.jpg,198,Beri,001,2020-11-20_18h16.55.967,test2,2020.2.5,Win32,60,,,,,,,
,,,,m,1.163995,0,198,198,198,1,houses/images/277.jpg,houses/images/168.jpg,199,Beri,001,2020-11-20_18h16.55.967,test2,2020.2.5,Win32,60,,,,,,,
,,,,z,0.09292,0,199,199,199,1,houses/images/278.jpg,houses/images/206.jpg,200,Beri,001,2020-11-20_18h16.55.967,test2,2020.2.5,Win32,60,,,,,,,
,,,,z,1.63147,,,,,,houses/images/279.jpg,houses/images/91.jpg,1,Beri,001,2020-11-20_18h16.55.967,test2,2020.2.5,Win32,60,space,1.264545,0,0,0,0,1
,,,,z,4.39133,,,,,,houses/images/28.jpg,houses/images/49.jpg,2,Beri,001,2020-11-20_18h16.55.967,test2,2020.2.5,Win32,60,,,0,1,1,1,1
,,,,m,1.111885,,,,,,houses/images/280.jpg,houses/images/163.jpg,3,Beri,001,2020-11-20_18h16.55.967,test2,2020.2.5,Win32,60,,,0,2,2,2,1
,,,,m,1.10585,,,,,,houses/images/281.jpg,houses/images/176.jpg,4,Beri,001,2020-11-20_18h16.55.967,test2,2020.2.5,Win32,60,,,0,3,3,3,1
,,,,m,1.534385,,,,,,houses/images/282.jpg,houses/images/263.jpg,5,Beri,001,2020-11-20_18h16.55.967,test2,2020.2.5,Win32,60,,,0,4,4,4,1
,,,,z,0.896045,,,,,,houses/images/283.jpg,houses/images/303.jpg,6,Beri,001,2020-11-20_18h16.55.967,test2,2020.2.5,Win32,60,,,0,5,5,5,1
,,,,z,2.276635,,,,,,houses/images/284.jpg,houses/images/184.jpg,7,Beri,001,2020-11-20_18h16.55.967,test2,2020.2.5,Win32,60,,,0,6,6,6,1
,,,,z,0.845095,,,,,,houses/images/285.jpg,houses/images/264.jpg,8,Beri,001,2020-11-20_18h16.55.967,test2,2020.2.5,Win32,60,,,0,7,7,7,1
,,,,m,0.749625,,,,,,houses/images/286.jpg,houses/images/89.jpg,9,Beri,001,2020-11-20_18h16.55.967,test2,2020.2.5,Win32,60,,,0,8,8,8,1
,,,,z,1.39829,,,,,,houses/images/187.jpg,houses/images/350.jpg,10,Beri,001,2020-11-20_18h16.55.967,test2,2020.2.5,Win32,60,,,0,9,9,9,1
,,,,m,0.732065,,,,,,houses/images/288.jpg,houses/images/267.jpg,11,Beri,001,2020-11-20_18h16.55.967,test2,2020.2.5,Win32,60,,,0,10,10,10,1
,,,,m,0.792815,,,,,,houses/images/289.jpg,houses/images/332.jpg,12,Beri,001,2020-11-20_18h16.55.967,test2,2020.2.5,Win32,60,,,0,11,11,11,1
,,,,z,1.93596,,,,,,houses/images/29.jpg,houses/images/61.jpg,13,Beri,001,2020-11-20_18h16.55.967,test2,2020.2.5,Win32,60,,,0,12,12,12,1
,,,,m,1.268605,,,,,,houses/images/290.jpg,houses/images/102.jpg,14,Beri,001,2020-11-20_18h16.55.967,test2,2020.2.5,Win32,60,,,0,13,13,13,1
,,,,m,3.581635,,,,,,houses/images/291.jpg,houses/images/220.jpg,15,Beri,001,2020-11-20_18h16.55.967,test2,2020.2.5,Win32,60,,,0,14,14,14,1
,,,,z,0.77789,,,,,,houses/images/292.jpg,houses/images/121.jpg,16,Beri,001,2020-11-20_18h16.55.967,test2,2020.2.5,Win32,60,,,0,15,15,15,1
,,,,z,0.871285,,,,,,houses/images/293.jpg,houses/images/25.jpg,17,Beri,001,2020-11-20_18h16.55.967,test2,2020.2.5,Win32,60,,,0,16,16,16,1
,,,,m,0.62877,,,,,,houses/images/294.jpg,houses/images/284.jpg,18,Beri,001,2020-11-20_18h16.55.967,test2,2020.2.5,Win32,60,,,0,17,17,17,1
,,,,m,1.03959,,,,,,houses/images/295.jpg,houses/images/273.jpg,19,Beri,001,2020-11-20_18h16.55.967,test2,2020.2.5,Win32,60,,,0,18,18,18,1
,,,,m,2.41344,,,,,,houses/images/296.jpg,houses/images/122.jpg,20,Beri,001,2020-11-20_18h16.55.967,test2,2020.2.5,Win32,60,,,0,19,19,19,1
,,,,m,0.79498,,,,,,houses/images/297.jpg,houses/images/217.jpg,21,Beri,001,2020-11-20_18h16.55.967,test2,2020.2.5,Win32,60,,,0,20,20,20,1
,,,,z,1.074245,,,,,,houses/images/298.jpg,houses/images/178.jpg,22,Beri,001,2020-11-20_18h16.55.967,test2,2020.2.5,Win32,60,,,0,21,21,21,1
,,,,m,0.705965,,,,,,houses/images/299.jpg,houses/images/43.jpg,23,Beri,001,2020-11-20_18h16.55.967,test2,2020.2.5,Win32,60,,,0,22,22,22,1
,,,,z,10.077685,,,,,,houses/images/3.jpg,houses/images/229.jpg,24,Beri,001,2020-11-20_18h16.55.967,test2,2020.2.5,Win32,60,,,0,23,23,23,1
,,,,z,2.83543,,,,,,houses/images/30.jpg,houses/images/177.jpg,25,Beri,001,2020-11-20_18h16.55.967,test2,2020.2.5,Win32,60,,,0,24,24,24,1
,,,,z,1.30016,,,,,,houses/images/300.jpg,houses/images/342.jpg,26,Beri,001,2020-11-20_18h16.55.967,test2,2020.2.5,Win32,60,,,0,25,25,25,1
,,,,z,1.353405,,,,,,houses/images/201.jpg,houses/images/57.jpg,27,Beri,001,2020-11-20_18h16.55.967,test2,2020.2.5,Win32,60,,,0,26,26,26,1
,,,,z,1.097175,,,,,,houses/images/302.jpg,houses/images/186.jpg,28,Beri,001,2020-11-20_18h16.55.967,test2,2020.2.5,Win32,60,,,0,27,27,27,1
,,,,m,1.02754,,,,,,houses/images/303.jpg,houses/images/131.jpg,29,Beri,001,2020-11-20_18h16.55.967,test2,2020.2.5,Win32,60,,,0,28,28,28,1
,,,,m,1.032825,,,,,,houses/images/304.jpg,houses/images/183.jpg,30,Beri,001,2020-11-20_18h16.55.967,test2,2020.2.5,Win32,60,,,0,29,29,29,1
,,,,m,0.74505,,,,,,houses/images/305.jpg,houses/images/200.jpg,31,Beri,001,2020-11-20_18h16.55.967,test2,2020.2.5,Win32,60,,,0,30,30,30,1
,,,,z,16.38175,,,,,,houses/images/306.jpg,houses/images/94.jpg,32,Beri,001,2020-11-20_18h16.55.967,test2,2020.2.5,Win32,60,,,0,31,31,31,1
,,,,z,4.28516,,,,,,houses/images/307.jpg,houses/images/96.jpg,33,Beri,001,2020-11-20_18h16.55.967,test2,2020.2.5,Win32,60,,,0,32,32,32,1
,,,,m,1.014175,,,,,,houses/images/308.jpg,houses/images/76.jpg,34,Beri,001,2020-11-20_18h16.55.967,test2,2020.2.5,Win32,60,,,0,33,33,33,1
,,,,m,1.3784,,,,,,houses/images/309.jpg,houses/images/78.jpg,35,Beri,001,2020-11-20_18h16.55.967,test2,2020.2.5,Win32,60,,,0,34,34,34,1
,,,,z,1.249185,,,,,,houses/images/31.jpg,houses/images/76.jpg,36,Beri,001,2020-11-20_18h16.55.967,test2,2020.2.5,Win32,60,,,0,35,35,35,1
,,,,m,1.333115,,,,,,houses/images/310.jpg,houses/images/128.jpg,37,Beri,001,2020-11-20_18h16.55.967,test2,2020.2.5,Win32,60,,,0,36,36,36,1
,,,,m,0.679495,,,,,,houses/images/311.jpg,houses/images/190.jpg,38,Beri,001,2020-11-20_18h16.55.967,test2,2020.2.5,Win32,60,,,0,37,37,37,1
,,,,m,0.85427,,,,,,houses/images/312.jpg,houses/images/5.jpg,39,Beri,001,2020-11-20_18h16.55.967,test2,2020.2.5,Win32,60,,,0,38,38,38,1
,,,,m,0.72776,,,,,,houses/images/313.jpg,houses/images/188.jpg,40,Beri,001,2020-11-20_18h16.55.967,test2,2020.2.5,Win32,60,,,0,39,39,39,1
,,,,m,0.920575,,,,,,houses/images/314.jpg,houses/images/342.jpg,41,Beri,001,2020-11-20_18h16.55.967,test2,2020.2.5,Win32,60,,,0,40,40,40,1
,,,,m,0.927655,,,,,,houses/images/315.jpg,houses/images/288.jpg,42,Beri,001,2020-11-20_18h16.55.967,test2,2020.2.5,Win32,60,,,0,41,41,41,1
,,,,m,1.46561,,,,,,houses/images/316.jpg,houses/images/321.jpg,43,Beri,001,2020-11-20_18h16.55.967,test2,2020.2.5,Win32,60,,,0,42,42,42,1
,,,,m,1.18385,,,,,,houses/images/317.jpg,houses/images/82.jpg,44,Beri,001,2020-11-20_18h16.55.967,test2,2020.2.5,Win32,60,,,0,43,43,43,1
,,,,m,0.95754,,,,,,houses/images/318.jpg,houses/images/169.jpg,45,Beri,001,2020-11-20_18h16.55.967,test2,2020.2.5,Win32,60,,,0,44,44,44,1
,,,,m,0.843175,,,,,,houses/images/319.jpg,houses/images/224.jpg,46,Beri,001,2020-11-20_18h16.55.967,test2,2020.2.5,Win32,60,,,0,45,45,45,1
,,,,m,1.269735,,,,,,houses/images/32.jpg,houses/images/175.jpg,47,Beri,001,2020-11-20_18h16.55.967,test2,2020.2.5,Win32,60,,,0,46,46,46,1
,,,,m,1.01383,,,,,,houses/images/320.jpg,houses/images/247.jpg,48,Beri,001,2020-11-20_18h16.55.967,test2,2020.2.5,Win32,60,,,0,47,47,47,1
,,,,m,0.8166,,,,,,houses/images/321.jpg,houses/images/97.jpg,49,Beri,001,2020-11-20_18h16.55.967,test2,2020.2.5,Win32,60,,,0,48,48,48,1
,,,,z,2.59316,,,,,,houses/images/322.jpg,houses/images/74.jpg,50,Beri,001,2020-11-20_18h16.55.967,test2,2020.2.5,Win32,60,,,0,49,49,49,1
,,,,z,0.882725,,,,,,houses/images/323.jpg,houses/images/148.jpg,51,Beri,001,2020-11-20_18h16.55.967,test2,2020.2.5,Win32,60,,,0,50,50,50,1
,,,,z,1.46866,,,,,,houses/images/324.jpg,houses/images/313.jpg,52,Beri,001,2020-11-20_18h16.55.967,test2,2020.2.5,Win32,60,,,0,51,51,51,1
,,,,m,1.14996,,,,,,houses/images/325.jpg,houses/images/11.jpg,53,Beri,001,2020-11-20_18h16.55.967,test2,2020.2.5,Win32,60,,,0,52,52,52,1
,,,,m,0.71926,,,,,,houses/images/326.jpg,houses/images/21.jpg,54,Beri,001,2020-11-20_18h16.55.967,test2,2020.2.5,Win32,60,,,0,53,53,53,1
,,,,m,0.997265,,,,,,houses/images/327.jpg,houses/images/281.jpg,55,Beri,001,2020-11-20_18h16.55.967,test2,2020.2.5,Win32,60,,,0,54,54,54,1
,,,,m,0.80217,,,,,,houses/images/328.jpg,houses/images/172.jpg,56,Beri,001,2020-11-20_18h16.55.967,test2,2020.2.5,Win32,60,,,0,55,55,55,1
,,,,m,0.84105,,,,,,houses/images/329.jpg,houses/images/273.jpg,57,Beri,001,2020-11-20_18h16.55.967,test2,2020.2.5,Win32,60,,,0,56,56,56,1
,,,,m,1.11067,,,,,,houses/images/33.jpg,houses/images/239.jpg,58,Beri,001,2020-11-20_18h16.55.967,test2,2020.2.5,Win32,60,,,0,57,57,57,1
,,,,m,7.543925,,,,,,houses/images/330.jpg,houses/images/333.jpg,59,Beri,001,2020-11-20_18h16.55.967,test2,2020.2.5,Win32,60,,,0,58,58,58,1
,,,,z,1.460985,,,,,,houses/images/331.jpg,houses/images/361.jpg,60,Beri,001,2020-11-20_18h16.55.967,test2,2020.2.5,Win32,60,,,0,59,59,59,1
,,,,z,0.6605,,,,,,houses/images/332.jpg,houses/images/91.jpg,61,Beri,001,2020-11-20_18h16.55.967,test2,2020.2.5,Win32,60,,,0,60,60,60,1
,,,,z,1.41862,,,,,,houses/images/333.jpg,houses/images/158.jpg,62,Beri,001,2020-11-20_18h16.55.967,test2,2020.2.5,Win32,60,,,0,61,61,61,1
,,,,m,0.91052,,,,,,houses/images/334.jpg,houses/images/10.jpg,63,Beri,001,2020-11-20_18h16.55.967,test2,2020.2.5,Win32,60,,,0,62,62,62,1
,,,,m,0.721985,,,,,,houses/images/335.jpg,houses/images/331.jpg,64,Beri,001,2020-11-20_18h16.55.967,test2,2020.2.5,Win32,60,,,0,63,63,63,1
,,,,z,0.564265,,,,,,houses/images/336.jpg,houses/images/171.jpg,65,Beri,001,2020-11-20_18h16.55.967,test2,2020.2.5,Win32,60,,,0,64,64,64,1
,,,,z,1.06674,,,,,,houses/images/337.jpg,houses/images/226.jpg,66,Beri,001,2020-11-20_18h16.55.967,test2,2020.2.5,Win32,60,,,0,65,65,65,1
,,,,m,1.35001,,,,,,houses/images/238.jpg,houses/images/214.jpg,67,Beri,001,2020-11-20_18h16.55.967,test2,2020.2.5,Win32,60,,,0,66,66,66,1
,,,,m,1.12379,,,,,,houses/images/239.jpg,houses/images/130.jpg,68,Beri,001,2020-11-20_18h16.55.967,test2,2020.2.5,Win32,60,,,0,67,67,67,1
,,,,z,0.666425,,,,,,houses/images/34.jpg,houses/images/85.jpg,69,Beri,001,2020-11-20_18h16.55.967,test2,2020.2.5,Win32,60,,,0,68,68,68,1
,,,,m,1.70996,,,,,,houses/images/340.jpg,houses/images/248.jpg,70,Beri,001,2020-11-20_18h16.55.967,test2,2020.2.5,Win32,60,,,0,69,69,69,1
,,,,z,0.645615,,,,,,houses/images/341.jpg,houses/images/215.jpg,71,Beri,001,2020-11-20_18h16.55.967,test2,2020.2.5,Win32,60,,,0,70,70,70,1
,,,,m,0.74414,,,,,,houses/images/342.jpg,houses/images/155.jpg,72,Beri,001,2020-11-20_18h16.55.967,test2,2020.2.5,Win32,60,,,0,71,71,71,1
,,,,z,0.46372,,,,,,houses/images/343.jpg,houses/images/193.jpg,73,Beri,001,2020-11-20_18h16.55.967,test2,2020.2.5,Win32,60,,,0,72,72,72,1
,,,,z,0.710385,,,,,,houses/images/344.jpg,houses/images/324.jpg,74,Beri,001,2020-11-20_18h16.55.967,test2,2020.2.5,Win32,60,,,0,73,73,73,1
,,,,z,0.898475,,,,,,houses/images/345.jpg,houses/images/86.jpg,75,Beri,001,2020-11-20_18h16.55.967,test2,2020.2.5,Win32,60,,,0,74,74,74,1
,,,,m,1.7555,,,,,,houses/images/246.jpg,houses/images/295.jpg,76,Beri,001,2020-11-20_18h16.55.967,test2,2020.2.5,Win32,60,,,0,75,75,75,1
,,,,m,0.75914,,,,,,houses/images/347.jpg,houses/images/292.jpg,77,Beri,001,2020-11-20_18h16.55.967,test2,2020.2.5,Win32,60,,,0,76,76,76,1
,,,,m,1.119355,,,,,,houses/images/348.jpg,houses/images/55.jpg,78,Beri,001,2020-11-20_18h16.55.967,test2,2020.2.5,Win32,60,,,0,77,77,77,1
,,,,z,0.872075,,,,,,houses/images/349.jpg,houses/images/1.jpg,79,Beri,001,2020-11-20_18h16.55.967,test2,2020.2.5,Win32,60,,,0,78,78,78,1
,,,,z,1.15316,,,,,,houses/images/35.jpg,houses/images/73.jpg,80,Beri,001,2020-11-20_18h16.55.967,test2,2020.2.5,Win32,60,,,0,79,79,79,1
,,,,m,0.755545,,,,,,houses/images/350.jpg,houses/images/44.jpg,81,Beri,001,2020-11-20_18h16.55.967,test2,2020.2.5,Win32,60,,,0,80,80,80,1
,,,,z,1.05075,,,,,,houses/images/351.jpg,houses/images/6.jpg,82,Beri,001,2020-11-20_18h16.55.967,test2,2020.2.5,Win32,60,,,0,81,81,81,1
,,,,m,0.81995,,,,,,houses/images/352.jpg,houses/images/20.jpg,83,Beri,001,2020-11-20_18h16.55.967,test2,2020.2.5,Win32,60,,,0,82,82,82,1
,,,,m,0.93244,,,,,,houses/images/353.jpg,houses/images/18.jpg,84,Beri,001,2020-11-20_18h16.55.967,test2,2020.2.5,Win32,60,,,0,83,83,83,1
,,,,z,0.708515,,,,,,houses/images/354.jpg,houses/images/347.jpg,85,Beri,001,2020-11-20_18h16.55.967,test2,2020.2.5,Win32,60,,,0,84,84,84,1
,,,,z,0.800205,,,,,,houses/images/355.jpg,houses/images/27.jpg,86,Beri,001,2020-11-20_18h16.55.967,test2,2020.2.5,Win32,60,,,0,85,85,85,1
,,,,z,1.042,,,,,,houses/images/356.jpg,houses/images/276.jpg,87,Beri,001,2020-11-20_18h16.55.967,test2,2020.2.5,Win32,60,,,0,86,86,86,1
,,,,m,1.74651,,,,,,houses/images/357.jpg,houses/images/345.jpg,88,Beri,001,2020-11-20_18h16.55.967,test2,2020.2.5,Win32,60,,,0,87,87,87,1
,,,,m,0.919405,,,,,,houses/images/358.jpg,houses/images/235.jpg,89,Beri,001,2020-11-20_18h16.55.967,test2,2020.2.5,Win32,60,,,0,88,88,88,1
,,,,m,1.023905,,,,,,houses/images/359.jpg,houses/images/115.jpg,90,Beri,001,2020-11-20_18h16.55.967,test2,2020.2.5,Win32,60,,,0,89,89,89,1
,,,,z,0.68678,,,,,,houses/images/36.jpg,houses/images/310.jpg,91,Beri,001,2020-11-20_18h16.55.967,test2,2020.2.5,Win32,60,,,0,90,90,90,1
,,,,m,1.1596,,,,,,houses/images/360.jpg,houses/images/93.jpg,92,Beri,001,2020-11-20_18h16.55.967,test2,2020.2.5,Win32,60,,,0,91,91,91,1
,,,,z,0.57272,,,,,,houses/images/361.jpg,houses/images/212.jpg,93,Beri,001,2020-11-20_18h16.55.967,test2,2020.2.5,Win32,60,,,0,92,92,92,1
,,,,m,0.86437,,,,,,houses/images/62.jpg,houses/images/51.jpg,94,Beri,001,2020-11-20_18h16.55.967,test2,2020.2.5,Win32,60,,,0,93,93,93,1
,,,,z,1.069895,,,,,,houses/images/37.jpg,houses/images/108.jpg,95,Beri,001,2020-11-20_18h16.55.967,test2,2020.2.5,Win32,60,,,0,94,94,94,1
,,,,m,0.74893,,,,,,houses/images/38.jpg,houses/images/127.jpg,96,Beri,001,2020-11-20_18h16.55.967,test2,2020.2.5,Win32,60,,,0,95,95,95,1
,,,,z,1.56425,,,,,,houses/images/39.jpg,houses/images/52.jpg,97,Beri,001,2020-11-20_18h16.55.967,test2,2020.2.5,Win32,60,,,0,96,96,96,1
,,,,z,1.48006,,,,,,houses/images/4.jpg,houses/images/318.jpg,98,Beri,001,2020-11-20_18h16.55.967,test2,2020.2.5,Win32,60,,,0,97,97,97,1
,,,,m,0.83396,,,,,,houses/images/40.jpg,houses/images/201.jpg,99,Beri,001,2020-11-20_18h16.55.967,test2,2020.2.5,Win32,60,,,0,98,98,98,1
,,,,m,2.202855,,,,,,houses/images/41.jpg,houses/images/7.jpg,100,Beri,001,2020-11-20_18h16.55.967,test2,2020.2.5,Win32,60,,,0,99,99,99,1
,,,,z,1.57817,,,,,,houses/images/42.jpg,houses/images/340.jpg,101,Beri,001,2020-11-20_18h16.55.967,test2,2020.2.5,Win32,60,,,0,100,100,100,1
,,,,z,1.694925,,,,,,houses/images/43.jpg,houses/images/150.jpg,102,Beri,001,2020-11-20_18h16.55.967,test2,2020.2.5,Win32,60,,,0,101,101,101,1
,,,,m,1.088885,,,,,,houses/images/44.jpg,houses/images/246.jpg,103,Beri,001,2020-11-20_18h16.55.967,test2,2020.2.5,Win32,60,,,0,102,102,102,1
,,,,m,0.963555,,,,,,houses/images/145.jpg,houses/images/18.jpg,104,Beri,001,2020-11-20_18h16.55.967,test2,2020.2.5,Win32,60,,,0,103,103,103,1
,,,,m,0.839835,,,,,,houses/images/46.jpg,houses/images/211.jpg,105,Beri,001,2020-11-20_18h16.55.967,test2,2020.2.5,Win32,60,,,0,104,104,104,1
,,,,z,0.809885,,,,,,houses/images/47.jpg,houses/images/282.jpg,106,Beri,001,2020-11-20_18h16.55.967,test2,2020.2.5,Win32,60,,,0,105,105,105,1
,,,,z,0.770085,,,,,,houses/images/48.jpg,houses/images/145.jpg,107,Beri,001,2020-11-20_18h16.55.967,test2,2020.2.5,Win32,60,,,0,106,106,106,1
,,,,z,1.429255,,,,,,houses/images/49.jpg,houses/images/135.jpg,108,Beri,001,2020-11-20_18h16.55.967,test2,2020.2.5,Win32,60,,,0,107,107,107,1
,,,,m,0.66946,,,,,,houses/images/5.jpg,houses/images/59.jpg,109,Beri,001,2020-11-20_18h16.55.967,test2,2020.2.5,Win32,60,,,0,108,108,108,1
,,,,z,1.140065,,,,,,houses/images/50.jpg,houses/images/164.jpg,110,Beri,001,2020-11-20_18h16.55.967,test2,2020.2.5,Win32,60,,,0,109,109,109,1
,,,,m,1.39811,,,,,,houses/images/51.jpg,houses/images/42.jpg,111,Beri,001,2020-11-20_18h16.55.967,test2,2020.2.5,Win32,60,,,0,110,110,110,1
,,,,m,1.035345,,,,,,houses/images/52.jpg,houses/images/32.jpg,112,Beri,001,2020-11-20_18h16.55.967,test2,2020.2.5,Win32,60,,,0,111,111,111,1
,,,,m,1.123095,,,,,,houses/images/53.jpg,houses/images/357.jpg,113,Beri,001,2020-11-20_18h16.55.967,test2,2020.2.5,Win32,60,,,0,112,112,112,1
,,,,m,0.84102,,,,,,houses/images/54.jpg,houses/images/305.jpg,114,Beri,001,2020-11-20_18h16.55.967,test2,2020.2.5,Win32,60,,,0,113,113,113,1
,,,,z,0.86685,,,,,,houses/images/55.jpg,houses/images/352.jpg,115,Beri,001,2020-11-20_18h16.55.967,test2,2020.2.5,Win32,60,,,0,114,114,114,1
,,,,m,0.756615,,,,,,houses/images/56.jpg,houses/images/273.jpg,116,Beri,001,2020-11-20_18h16.55.967,test2,2020.2.5,Win32,60,,,0,115,115,115,1
,,,,m,0.88536,,,,,,houses/images/57.jpg,houses/images/143.jpg,117,Beri,001,2020-11-20_18h16.55.967,test2,2020.2.5,Win32,60,,,0,116,116,116,1
,,,,z,3.82979,,,,,,houses/images/58.jpg,houses/images/95.jpg,118,Beri,001,2020-11-20_18h16.55.967,test2,2020.2.5,Win32,60,,,0,117,117,117,1
,,,,z,1.66248,,,,,,houses/images/59.jpg,houses/images/244.jpg,119,Beri,001,2020-11-20_18h16.55.967,test2,2020.2.5,Win32,60,,,0,118,118,118,1
,,,,m,2.09108,,,,,,houses/images/6.jpg,houses/images/202.jpg,120,Beri,001,2020-11-20_18h16.55.967,test2,2020.2.5,Win32,60,,,0,119,119,119,1
,,,,m,0.62247,,,,,,houses/images/60.jpg,houses/images/203.jpg,121,Beri,001,2020-11-20_18h16.55.967,test2,2020.2.5,Win32,60,,,0,120,120,120,1
,,,,m,0.56965,,,,,,houses/images/61.jpg,houses/images/123.jpg,122,Beri,001,2020-11-20_18h16.55.967,test2,2020.2.5,Win32,60,,,0,121,121,121,1
,,,,z,1.013605,,,,,,houses/images/62.jpg,houses/images/353.jpg,123,Beri,001,2020-11-20_18h16.55.967,test2,2020.2.5,Win32,60,,,0,122,122,122,1
,,,,m,0.589225,,,,,,houses/images/63.jpg,houses/images/281.jpg,124,Beri,001,2020-11-20_18h16.55.967,test2,2020.2.5,Win32,60,,,0,123,123,123,1
,,,,z,0.502955,,,,,,houses/images/64.jpg,houses/images/280.jpg,125,Beri,001,2020-11-20_18h16.55.967,test2,2020.2.5,Win32,60,,,0,124,124,124,1
,,,,m,0.21218,,,,,,houses/images/65.jpg,houses/images/309.jpg,126,Beri,001,2020-11-20_18h16.55.967,test2,2020.2.5,Win32,60,,,0,125,125,125,1
,,,,z,0.604565,,,,,,houses/images/66.jpg,houses/images/302.jpg,127,Beri,001,2020-11-20_18h16.55.967,test2,2020.2.5,Win32,60,,,0,126,126,126,1
,,,,z,1.061795,,,,,,houses/images/67.jpg,houses/images/300.jpg,128,Beri,001,2020-11-20_18h16.55.967,test2,2020.2.5,Win32,60,,,0,127,127,127,1
,,,,z,0.98043,,,,,,houses/images/68.jpg,houses/images/328.jpg,129,Beri,001,2020-11-20_18h16.55.967,test2,2020.2.5,Win32,60,,,0,128,128,128,1
,,,,z,1.28753,,,,,,houses/images/69.jpg,houses/images/114.jpg,130,Beri,001,2020-11-20_18h16.55.967,test2,2020.2.5,Win32,60,,,0,129,129,129,1
,,,,m,0.733645,,,,,,houses/images/7.jpg,houses/images/31.jpg,131,Beri,001,2020-11-20_18h16.55.967,test2,2020.2.5,Win32,60,,,0,130,130,130,1
,,,,z,0.83687,,,,,,houses/images/70.jpg,houses/images/54.jpg,132,Beri,001,2020-11-20_18h16.55.967,test2,2020.2.5,Win32,60,,,0,131,131,131,1
,,,,m,0.75341,,,,,,houses/images/71.jpg,houses/images/293.jpg,133,Beri,001,2020-11-20_18h16.55.967,test2,2020.2.5,Win32,60,,,0,132,132,132,1
,,,,z,0.704705,,,,,,houses/images/72.jpg,houses/images/37.jpg,134,Beri,001,2020-11-20_18h16.55.967,test2,2020.2.5,Win32,60,,,0,133,133,133,1
,,,,m,0.665415,,,,,,houses/images/73.jpg,houses/images/230.jpg,135,Beri,001,2020-11-20_18h16.55.967,test2,2020.2.5,Win32,60,,,0,134,134,134,1
,,,,m,0.994245,,,,,,houses/images/74.jpg,houses/images/88.jpg,136,Beri,001,2020-11-20_18h16.55.967,test2,2020.2.5,Win32,60,,,0,135,135,135,1
,,,,z,0.885285,,,,,,houses/images/75.jpg,houses/images/161.jpg,137,Beri,001,2020-11-20_18h16.55.967,test2,2020.2.5,Win32,60,,,0,136,136,136,1
,,,,m,0.624455,,,,,,houses/images/76.jpg,houses/images/354.jpg,138,Beri,001,2020-11-20_18h16.55.967,test2,2020.2.5,Win32,60,,,0,137,137,137,1
,,,,z,0.709165,,,,,,houses/images/77.jpg,houses/images/251.jpg,139,Beri,001,2020-11-20_18h16.55.967,test2,2020.2.5,Win32,60,,,0,138,138,138,1
,,,,m,1.946765,,,,,,houses/images/78.jpg,houses/images/143.jpg,140,Beri,001,2020-11-20_18h16.55.967,test2,2020.2.5,Win32,60,,,0,139,139,139,1
,,,,m,0.775405,,,,,,houses/images/79.jpg,houses/images/335.jpg,141,Beri,001,2020-11-20_18h16.55.967,test2,2020.2.5,Win32,60,,,0,140,140,140,1
,,,,m,0.66506,,,,,,houses/images/8.jpg,houses/images/231.jpg,142,Beri,001,2020-11-20_18h16.55.967,test2,2020.2.5,Win32,60,,,0,141,141,141,1
,,,,z,0.77451,,,,,,houses/images/80.jpg,houses/images/69.jpg,143,Beri,001,2020-11-20_18h16.55.967,test2,2020.2.5,Win32,60,,,0,142,142,142,1
,,,,z,1.04187,,,,,,houses/images/81.jpg,houses/images/92.jpg,144,Beri,001,2020-11-20_18h16.55.967,test2,2020.2.5,Win32,60,,,0,143,143,143,1
,,,,m,0.837605,,,,,,houses/images/82.jpg,houses/images/221.jpg,145,Beri,001,2020-11-20_18h16.55.967,test2,2020.2.5,Win32,60,,,0,144,144,144,1
,,,,z,2.12869,,,,,,houses/images/83.jpg,houses/images/196.jpg,146,Beri,001,2020-11-20_18h16.55.967,test2,2020.2.5,Win32,60,,,0,145,145,145,1
,,,,z,0.796005,,,,,,houses/images/84.jpg,houses/images/53.jpg,147,Beri,001,2020-11-20_18h16.55.967,test2,2020.2.5,Win32,60,,,0,146,146,146,1
,,,,m,0.91211,,,,,,houses/images/85.jpg,houses/images/166.jpg,148,Beri,001,2020-11-20_18h16.55.967,test2,2020.2.5,Win32,60,,,0,147,147,147,1
,,,,m,0.770035,,,,,,houses/images/86.jpg,houses/images/266.jpg,149,Beri,001,2020-11-20_18h16.55.967,test2,2020.2.5,Win32,60,,,0,148,148,148,1
,,,,z,0.79404,,,,,,houses/images/87.jpg,houses/images/355.jpg,150,Beri,001,2020-11-20_18h16.55.967,test2,2020.2.5,Win32,60,,,0,149,149,149,1
,,,,z,1.201775,,,,,,houses/images/88.jpg,houses/images/206.jpg,151,Beri,001,2020-11-20_18h16.55.967,test2,2020.2.5,Win32,60,,,0,150,150,150,1
,,,,z,0.76652,,,,,,houses/images/89.jpg,houses/images/241.jpg,152,Beri,001,2020-11-20_18h16.55.967,test2,2020.2.5,Win32,60,,,0,151,151,151,1
,,,,z,4.469115,,,,,,houses/images/9.jpg,houses/images/147.jpg,153,Beri,001,2020-11-20_18h16.55.967,test2,2020.2.5,Win32,60,,,0,152,152,152,1
,,,,z,1.752215,,,,,,houses/images/90.jpg,houses/images/117.jpg,154,Beri,001,2020-11-20_18h16.55.967,test2,2020.2.5,Win32,60,,,0,153,153,153,1
,,,,m,0.60489,,,,,,houses/images/91.jpg,houses/images/34.jpg,155,Beri,001,2020-11-20_18h16.55.967,test2,2020.2.5,Win32,60,,,0,154,154,154,1
,,,,m,0.712945,,,,,,houses/images/92.jpg,houses/images/105.jpg,156,Beri,001,2020-11-20_18h16.55.967,test2,2020.2.5,Win32,60,,,0,155,155,155,1
,,,,z,1.18749,,,,,,houses/images/93.jpg,houses/images/249.jpg,157,Beri,001,2020-11-20_18h16.55.967,test2,2020.2.5,Win32,60,,,0,156,156,156,1
,,,,m,1.336955,,,,,,houses/images/94.jpg,houses/images/265.jpg,158,Beri,001,2020-11-20_18h16.55.967,test2,2020.2.5,Win32,60,,,0,157,157,157,1
,,,,z,1.960735,,,,,,houses/images/95.jpg,houses/images/65.jpg,159,Beri,001,2020-11-20_18h16.55.967,test2,2020.2.5,Win32,60,,,0,158,158,158,1
,,,,m,0.77918,,,,,,houses/images/96.jpg,houses/images/83.jpg,160,Beri,001,2020-11-20_18h16.55.967,test2,2020.2.5,Win32,60,,,0,159,159,159,1
,,,,z,3.89937,,,,,,houses/images/97.jpg,houses/images/165.jpg,161,Beri,001,2020-11-20_18h16.55.967,test2,2020.2.5,Win32,60,,,0,160,160,160,1
,,,,m,1.764665,,,,,,houses/images/98.jpg,houses/images/280.jpg,162,Beri,001,2020-11-20_18h16.55.967,test2,2020.2.5,Win32,60,,,0,161,161,161,1
,,,,m,0.797565,,,,,,houses/images/199.jpg,houses/images/278.jpg,163,Beri,001,2020-11-20_18h16.55.967,test2,2020.2.5,Win32,60,,,0,162,162,162,1
,,,,m,2.535245,,,,,,houses/images/0.jpg,houses/images/297.jpg,164,Beri,001,2020-11-20_18h16.55.967,test2,2020.2.5,Win32,60,,,0,163,163,163,1
,,,,m,0.79958,,,,,,houses/images/1.jpg,houses/images/225.jpg,165,Beri,001,2020-11-20_18h16.55.967,test2,2020.2.5,Win32,60,,,0,164,164,164,1
,,,,m,0.823145,,,,,,houses/images/10.jpg,houses/images/41.jpg,166,Beri,001,2020-11-20_18h16.55.967,test2,2020.2.5,Win32,60,,,0,165,165,165,1
,,,,m,1.331495,,,,,,houses/images/100.jpg,houses/images/19.jpg,167,Beri,001,2020-11-20_18h16.55.967,test2,2020.2.5,Win32,60,,,0,166,166,166,1
,,,,m,1.239915,,,,,,houses/images/101.jpg,houses/images/189.jpg,168,Beri,001,2020-11-20_18h16.55.967,test2,2020.2.5,Win32,60,,,0,167,167,167,1
,,,,z,0.94504,,,,,,houses/images/102.jpg,houses/images/141.jpg,169,Beri,001,2020-11-20_18h16.55.967,test2,2020.2.5,Win32,60,,,0,168,168,168,1
,,,,z,1.2142,,,,,,houses/images/103.jpg,houses/images/212.jpg,170,Beri,001,2020-11-20_18h16.55.967,test2,2020.2.5,Win32,60,,,0,169,169,169,1
,,,,z,0.92196,,,,,,houses/images/104.jpg,houses/images/134.jpg,171,Beri,001,2020-11-20_18h16.55.967,test2,2020.2.5,Win32,60,,,0,170,170,170,1
,,,,z,1.373015,,,,,,houses/images/105.jpg,houses/images/13.jpg,172,Beri,001,2020-11-20_18h16.55.967,test2,2020.2.5,Win32,60,,,0,171,171,171,1
,,,,m,1.107355,,,,,,houses/images/106.jpg,houses/images/258.jpg,173,Beri,001,2020-11-20_18h16.55.967,test2,2020.2.5,Win32,60,,,0,172,172,172,1
,,,,z,2.70277,,,,,,houses/images/107.jpg,houses/images/14.jpg,174,Beri,001,2020-11-20_18h16.55.967,test2,2020.2.5,Win32,60,,,0,173,173,173,1
,,,,m,0.608405,,,,,,houses/images/108.jpg,houses/images/9.jpg,175,Beri,001,2020-11-20_18h16.55.967,test2,2020.2.5,Win32,60,,,0,174,174,174,1
,,,,z,0.777565,,,,,,houses/images/109.jpg,houses/images/106.jpg,176,Beri,001,2020-11-20_18h16.55.967,test2,2020.2.5,Win32,60,,,0,175,175,175,1
,,,,z,0.95584,,,,,,houses/images/11.jpg,houses/images/268.jpg,177,Beri,001,2020-11-20_18h16.55.967,test2,2020.2.5,Win32,60,,,0,176,176,176,1
,,,,m,0.857795,,,,,,houses/images/210.jpg,houses/images/330.jpg,178,Beri,001,2020-11-20_18h16.55.967,test2,2020.2.5,Win32,60,,,0,177,177,177,1
,,,,m,0.994955,,,,,,houses/images/111.jpg,houses/images/343.jpg,179,Beri,001,2020-11-20_18h16.55.967,test2,2020.2.5,Win32,60,,,0,178,178,178,1
,,,,m,1.064645,,,,,,houses/images/112.jpg,houses/images/225.jpg,180,Beri,001,2020-11-20_18h16.55.967,test2,2020.2.5,Win32,60,,,0,179,179,179,1
,,,,m,2.59332,,,,,,houses/images/113.jpg,houses/images/174.jpg,181,Beri,001,2020-11-20_18h16.55.967,test2,2020.2.5,Win32,60,,,0,180,180,180,1
,,,,z,2.077725,,,,,,houses/images/114.jpg,houses/images/25.jpg,182,Beri,001,2020-11-20_18h16.55.967,test2,2020.2.5,Win32,60,,,0,181,181,181,1
,,,,z,0.97204,,,,,,houses/images/115.jpg,houses/images/100.jpg,183,Beri,001,2020-11-20_18h16.55.967,test2,2020.2.5,Win32,60,,,0,182,182,182,1
,,,,m,1.0148,,,,,,houses/images/116.jpg,houses/images/48.jpg,184,Beri,001,2020-11-20_18h16.55.967,test2,2020.2.5,Win32,60,,,0,183,183,183,1
,,,,m,1.415885,,,,,,houses/images/117.jpg,houses/images/296.jpg,185,Beri,001,2020-11-20_18h16.55.967,test2,2020.2.5,Win32,60,,,0,184,184,184,1
,,,,m,0.710765,,,,,,houses/images/118.jpg,houses/images/15.jpg,186,Beri,001,2020-11-20_18h16.55.967,test2,2020.2.5,Win32,60,,,0,185,185,185,1
,,,,m,0.873005,,,,,,houses/images/119.jpg,houses/images/252.jpg,187,Beri,001,2020-11-20_18h16.55.967,test2,2020.2.5,Win32,60,,,0,186,186,186,1
,,,,z,2.81908,,,,,,houses/images/12.jpg,houses/images/290.jpg,188,Beri,001,2020-11-20_18h16.55.967,test2,2020.2.5,Win32,60,,,0,187,187,187,1
,,,,z,0.894415,,,,,,houses/images/120.jpg,houses/images/236.jpg,189,Beri,001,2020-11-20_18h16.55.967,test2,2020.2.5,Win32,60,,,0,188,188,188,1
,,,,m,2.83194,,,,,,houses/images/121.jpg,houses/images/260.jpg,190,Beri,001,2020-11-20_18h16.55.967,test2,2020.2.5,Win32,60,,,0,189,189,189,1
,,,,m,1.91683,,,,,,houses/images/122.jpg,houses/images/56.jpg,191,Beri,001,2020-11-20_18h16.55.967,test2,2020.2.5,Win32,60,,,0,190,190,190,1
,,,,z,0.867375,,,,,,houses/images/123.jpg,houses/images/336.jpg,192,Beri,001,2020-11-20_18h16.55.967,test2,2020.2.5,Win32,60,,,0,191,191,191,1
,,,,z,0.6908,,,,,,houses/images/124.jpg,houses/images/39.jpg,193,Beri,001,2020-11-20_18h16.55.967,test2,2020.2.5,Win32,60,,,0,192,192,192,1
,,,,m,0.77556,,,,,,houses/images/225.jpg,houses/images/302.jpg,194,Beri,001,2020-11-20_18h16.55.967,test2,2020.2.5,Win32,60,,,0,193,193,193,1
,,,,m,3.545925,,,,,,houses/images/226.jpg,houses/images/207.jpg,195,Beri,001,2020-11-20_18h16.55.967,test2,2020.2.5,Win32,60,,,0,194,194,194,1
,,,,z,0.76311,,,,,,houses/images/127.jpg,houses/images/348.jpg,196,Beri,001,2020-11-20_18h16.55.967,test2,2020.2.5,Win32,60,,,0,195,195,195,1
,,,,z,0.932755,,,,,,houses/images/128.jpg,houses/images/151.jpg,197,Beri,001,2020-11-20_18h16.55.967,test2,2020.2.5,Win32,60,,,0,196,196,196,1
,,,,z,0.875815,,,,,,houses/images/129.jpg,houses/images/315.jpg,198,Beri,001,2020-11-20_18h16.55.967,test2,2020.2.5,Win32,60,,,0,197,197,197,1
,,,,z,1.418735,,,,,,houses/images/13.jpg,houses/images/63.jpg,199,Beri,001,2020-11-20_18h16.55.967,test2,2020.2.5,Win32,60,,,0,198,198,198,1
,,,,z,0.742745,,,,,,houses/images/307.jpg,houses/images/172.jpg,200,Beri,001,2020-11-20_18h16.55.967,test2,2020.2.5,Win32,60,,,0,199,199,199,1
