key_resp.keys,key_resp.rt,key_resp_3.keys,key_resp_3.rt,key_resp_2.keys,key_resp_2.rt,trials.thisRepN,trials.thisTrialN,trials.thisN,trials.thisIndex,trials.ran,image_left,image_right,trial_num,participant,session,date,expName,psychopyVersion,OS,frameRate,key_resp_4.keys,key_resp_4.rt,trials_2.thisRepN,trials_2.thisTrialN,trials_2.thisN,trials_2.thisIndex,trials_2.ran
space,1.87435,space,1.074245,z,4.62435,0,0,0,0,1,houses/images/0.jpg,houses/images/349.jpg,1,GZ,001,2020-11-21_15h16.11.822,test2,2020.2.5,Win32,60,,,,,,,
,,,,z,9.984965,0,1,1,1,1,houses/images/1.jpg,houses/images/194.jpg,2,GZ,001,2020-11-21_15h16.11.822,test2,2020.2.5,Win32,60,,,,,,,
,,,,m,12.581665,0,2,2,2,1,houses/images/10.jpg,houses/images/159.jpg,3,GZ,001,2020-11-21_15h16.11.822,test2,2020.2.5,Win32,60,,,,,,,
,,,,m,2.751485,0,3,3,3,1,houses/images/100.jpg,houses/images/42.jpg,4,GZ,001,2020-11-21_15h16.11.822,test2,2020.2.5,Win32,60,,,,,,,
,,,,m,1.51586,0,4,4,4,1,houses/images/101.jpg,houses/images/240.jpg,5,GZ,001,2020-11-21_15h16.11.822,test2,2020.2.5,Win32,60,,,,,,,
,,,,m,2.90359,0,5,5,5,1,houses/images/102.jpg,houses/images/201.jpg,6,GZ,001,2020-11-21_15h16.11.822,test2,2020.2.5,Win32,60,,,,,,,
,,,,z,2.899555,0,6,6,6,1,houses/images/103.jpg,houses/images/223.jpg,7,GZ,001,2020-11-21_15h16.11.822,test2,2020.2.5,Win32,60,,,,,,,
,,,,z,3.89139,0,7,7,7,1,houses/images/104.jpg,houses/images/46.jpg,8,GZ,001,2020-11-21_15h16.11.822,test2,2020.2.5,Win32,60,,,,,,,
,,,,z,5.5076,0,8,8,8,1,houses/images/105.jpg,houses/images/109.jpg,9,GZ,001,2020-11-21_15h16.11.822,test2,2020.2.5,Win32,60,,,,,,,
,,,,m,4.717465,0,9,9,9,1,houses/images/106.jpg,houses/images/12.jpg,10,GZ,001,2020-11-21_15h16.11.822,test2,2020.2.5,Win32,60,,,,,,,
,,,,m,1.79949,0,10,10,10,1,houses/images/107.jpg,houses/images/358.jpg,11,GZ,001,2020-11-21_15h16.11.822,test2,2020.2.5,Win32,60,,,,,,,
,,,,z,3.200185,0,11,11,11,1,houses/images/108.jpg,houses/images/197.jpg,12,GZ,001,2020-11-21_15h16.11.822,test2,2020.2.5,Win32,60,,,,,,,
,,,,z,2.839275,0,12,12,12,1,houses/images/109.jpg,houses/images/133.jpg,13,GZ,001,2020-11-21_15h16.11.822,test2,2020.2.5,Win32,60,,,,,,,
,,,,z,2.64951,0,13,13,13,1,houses/images/11.jpg,houses/images/286.jpg,14,GZ,001,2020-11-21_15h16.11.822,test2,2020.2.5,Win32,60,,,,,,,
,,,,z,2.338915,0,14,14,14,1,houses/images/210.jpg,houses/images/33.jpg,15,GZ,001,2020-11-21_15h16.11.822,test2,2020.2.5,Win32,60,,,,,,,
,,,,z,3.049455,0,15,15,15,1,houses/images/111.jpg,houses/images/156.jpg,16,GZ,001,2020-11-21_15h16.11.822,test2,2020.2.5,Win32,60,,,,,,,
,,,,m,9.266055,0,16,16,16,1,houses/images/112.jpg,houses/images/128.jpg,17,GZ,001,2020-11-21_15h16.11.822,test2,2020.2.5,Win32,60,,,,,,,
,,,,m,1.453915,0,17,17,17,1,houses/images/113.jpg,houses/images/306.jpg,18,GZ,001,2020-11-21_15h16.11.822,test2,2020.2.5,Win32,60,,,,,,,
,,,,m,1.865165,0,18,18,18,1,houses/images/114.jpg,houses/images/272.jpg,19,GZ,001,2020-11-21_15h16.11.822,test2,2020.2.5,Win32,60,,,,,,,
,,,,m,10.13362,0,19,19,19,1,houses/images/115.jpg,houses/images/112.jpg,20,GZ,001,2020-11-21_15h16.11.822,test2,2020.2.5,Win32,60,,,,,,,
,,,,z,1.582385,0,20,20,20,1,houses/images/116.jpg,houses/images/101.jpg,21,GZ,001,2020-11-21_15h16.11.822,test2,2020.2.5,Win32,60,,,,,,,
,,,,m,3.55146,0,21,21,21,1,houses/images/117.jpg,houses/images/298.jpg,22,GZ,001,2020-11-21_15h16.11.822,test2,2020.2.5,Win32,60,,,,,,,
,,,,z,7.415345,0,22,22,22,1,houses/images/118.jpg,houses/images/80.jpg,23,GZ,001,2020-11-21_15h16.11.822,test2,2020.2.5,Win32,60,,,,,,,
,,,,m,3.232925,0,23,23,23,1,houses/images/119.jpg,houses/images/329.jpg,24,GZ,001,2020-11-21_15h16.11.822,test2,2020.2.5,Win32,60,,,,,,,
,,,,m,4.282745,0,24,24,24,1,houses/images/12.jpg,houses/images/320.jpg,25,GZ,001,2020-11-21_15h16.11.822,test2,2020.2.5,Win32,60,,,,,,,
,,,,z,2.285315,0,25,25,25,1,houses/images/120.jpg,houses/images/24.jpg,26,GZ,001,2020-11-21_15h16.11.822,test2,2020.2.5,Win32,60,,,,,,,
,,,,z,6.106585,0,26,26,26,1,houses/images/121.jpg,houses/images/341.jpg,27,GZ,001,2020-11-21_15h16.11.822,test2,2020.2.5,Win32,60,,,,,,,
,,,,m,3.96853,0,27,27,27,1,houses/images/122.jpg,houses/images/38.jpg,28,GZ,001,2020-11-21_15h16.11.822,test2,2020.2.5,Win32,60,,,,,,,
,,,,m,4.650035,0,28,28,28,1,houses/images/123.jpg,houses/images/98.jpg,29,GZ,001,2020-11-21_15h16.11.822,test2,2020.2.5,Win32,60,,,,,,,
,,,,z,2.231855,0,29,29,29,1,houses/images/124.jpg,houses/images/213.jpg,30,GZ,001,2020-11-21_15h16.11.822,test2,2020.2.5,Win32,60,,,,,,,
,,,,z,3.399795,0,30,30,30,1,houses/images/225.jpg,houses/images/208.jpg,31,GZ,001,2020-11-21_15h16.11.822,test2,2020.2.5,Win32,60,,,,,,,
,,,,z,1.79678,0,31,31,31,1,houses/images/226.jpg,houses/images/210.jpg,32,GZ,001,2020-11-21_15h16.11.822,test2,2020.2.5,Win32,60,,,,,,,
,,,,z,2.22115,0,32,32,32,1,houses/images/127.jpg,houses/images/90.jpg,33,GZ,001,2020-11-21_15h16.11.822,test2,2020.2.5,Win32,60,,,,,,,
,,,,z,2.331745,0,33,33,33,1,houses/images/128.jpg,houses/images/113.jpg,34,GZ,001,2020-11-21_15h16.11.822,test2,2020.2.5,Win32,60,,,,,,,
,,,,m,5.749245,0,34,34,34,1,houses/images/129.jpg,houses/images/232.jpg,35,GZ,001,2020-11-21_15h16.11.822,test2,2020.2.5,Win32,60,,,,,,,
,,,,m,3.72587,0,35,35,35,1,houses/images/13.jpg,houses/images/359.jpg,36,GZ,001,2020-11-21_15h16.11.822,test2,2020.2.5,Win32,60,,,,,,,
,,,,z,2.01616,0,36,36,36,1,houses/images/130.jpg,houses/images/187.jpg,37,GZ,001,2020-11-21_15h16.11.822,test2,2020.2.5,Win32,60,,,,,,,
,,,,z,1.4889,0,37,37,37,1,houses/images/131.jpg,houses/images/275.jpg,38,GZ,001,2020-11-21_15h16.11.822,test2,2020.2.5,Win32,60,,,,,,,
,,,,m,2.12328,0,38,38,38,1,houses/images/132.jpg,houses/images/162.jpg,39,GZ,001,2020-11-21_15h16.11.822,test2,2020.2.5,Win32,60,,,,,,,
,,,,m,1.902,0,39,39,39,1,houses/images/133.jpg,houses/images/311.jpg,40,GZ,001,2020-11-21_15h16.11.822,test2,2020.2.5,Win32,60,,,,,,,
,,,,m,3.254105,0,40,40,40,1,houses/images/134.jpg,houses/images/277.jpg,41,GZ,001,2020-11-21_15h16.11.822,test2,2020.2.5,Win32,60,,,,,,,
,,,,m,6.09208,0,41,41,41,1,houses/images/135.jpg,houses/images/71.jpg,42,GZ,001,2020-11-21_15h16.11.822,test2,2020.2.5,Win32,60,,,,,,,
,,,,z,2.029105,0,42,42,42,1,houses/images/236.jpg,houses/images/72.jpg,43,GZ,001,2020-11-21_15h16.11.822,test2,2020.2.5,Win32,60,,,,,,,
,,,,z,1.527295,0,43,43,43,1,houses/images/137.jpg,houses/images/246.jpg,44,GZ,001,2020-11-21_15h16.11.822,test2,2020.2.5,Win32,60,,,,,,,
,,,,z,6.32725,0,44,44,44,1,houses/images/138.jpg,houses/images/174.jpg,45,GZ,001,2020-11-21_15h16.11.822,test2,2020.2.5,Win32,60,,,,,,,
,,,,m,2.008385,0,45,45,45,1,houses/images/239.jpg,houses/images/292.jpg,46,GZ,001,2020-11-21_15h16.11.822,test2,2020.2.5,Win32,60,,,,,,,
,,,,m,1.977225,0,46,46,46,1,houses/images/14.jpg,houses/images/194.jpg,47,GZ,001,2020-11-21_15h16.11.822,test2,2020.2.5,Win32,60,,,,,,,
,,,,z,5.37748,0,47,47,47,1,houses/images/240.jpg,houses/images/180.jpg,48,GZ,001,2020-11-21_15h16.11.822,test2,2020.2.5,Win32,60,,,,,,,
,,,,z,4.591655,0,48,48,48,1,houses/images/141.jpg,houses/images/262.jpg,49,GZ,001,2020-11-21_15h16.11.822,test2,2020.2.5,Win32,60,,,,,,,
,,,,z,1.55075,0,49,49,49,1,houses/images/42.jpg,houses/images/118.jpg,50,GZ,001,2020-11-21_15h16.11.822,test2,2020.2.5,Win32,60,,,,,,,
,,,,z,2.965665,0,50,50,50,1,houses/images/143.jpg,houses/images/316.jpg,51,GZ,001,2020-11-21_15h16.11.822,test2,2020.2.5,Win32,60,,,,,,,
,,,,z,1.409505,0,51,51,51,1,houses/images/144.jpg,houses/images/29.jpg,52,GZ,001,2020-11-21_15h16.11.822,test2,2020.2.5,Win32,60,,,,,,,
,,,,z,17.39901,0,52,52,52,1,houses/images/145.jpg,houses/images/146.jpg,53,GZ,001,2020-11-21_15h16.11.822,test2,2020.2.5,Win32,60,,,,,,,
,,,,z,1.924745,0,53,53,53,1,houses/images/146.jpg,houses/images/342.jpg,54,GZ,001,2020-11-21_15h16.11.822,test2,2020.2.5,Win32,60,,,,,,,
,,,,m,3.54505,0,54,54,54,1,houses/images/147.jpg,houses/images/120.jpg,55,GZ,001,2020-11-21_15h16.11.822,test2,2020.2.5,Win32,60,,,,,,,
,,,,m,5.915775,0,55,55,55,1,houses/images/148.jpg,houses/images/204.jpg,56,GZ,001,2020-11-21_15h16.11.822,test2,2020.2.5,Win32,60,,,,,,,
,,,,z,5.41146,0,56,56,56,1,houses/images/149.jpg,houses/images/292.jpg,57,GZ,001,2020-11-21_15h16.11.822,test2,2020.2.5,Win32,60,,,,,,,
,,,,m,4.768025,0,57,57,57,1,houses/images/15.jpg,houses/images/191.jpg,58,GZ,001,2020-11-21_15h16.11.822,test2,2020.2.5,Win32,60,,,,,,,
,,,,m,3.94379,0,58,58,58,1,houses/images/150.jpg,houses/images/318.jpg,59,GZ,001,2020-11-21_15h16.11.822,test2,2020.2.5,Win32,60,,,,,,,
,,,,m,1.360355,0,59,59,59,1,houses/images/151.jpg,houses/images/255.jpg,60,GZ,001,2020-11-21_15h16.11.822,test2,2020.2.5,Win32,60,,,,,,,
,,,,z,3.74327,0,60,60,60,1,houses/images/152.jpg,houses/images/261.jpg,61,GZ,001,2020-11-21_15h16.11.822,test2,2020.2.5,Win32,60,,,,,,,
,,,,z,4.542915,0,61,61,61,1,houses/images/253.jpg,houses/images/129.jpg,62,GZ,001,2020-11-21_15h16.11.822,test2,2020.2.5,Win32,60,,,,,,,
,,,,m,2.51559,0,62,62,62,1,houses/images/154.jpg,houses/images/36.jpg,63,GZ,001,2020-11-21_15h16.11.822,test2,2020.2.5,Win32,60,,,,,,,
,,,,m,1.836195,0,63,63,63,1,houses/images/155.jpg,houses/images/210.jpg,64,GZ,001,2020-11-21_15h16.11.822,test2,2020.2.5,Win32,60,,,,,,,
,,,,m,5.26132,0,64,64,64,1,houses/images/156.jpg,houses/images/132.jpg,65,GZ,001,2020-11-21_15h16.11.822,test2,2020.2.5,Win32,60,,,,,,,
,,,,m,4.243375,0,65,65,65,1,houses/images/157.jpg,houses/images/70.jpg,66,GZ,001,2020-11-21_15h16.11.822,test2,2020.2.5,Win32,60,,,,,,,
,,,,m,5.92985,0,66,66,66,1,houses/images/158.jpg,houses/images/199.jpg,67,GZ,001,2020-11-21_15h16.11.822,test2,2020.2.5,Win32,60,,,,,,,
,,,,m,1.409825,0,67,67,67,1,houses/images/159.jpg,houses/images/226.jpg,68,GZ,001,2020-11-21_15h16.11.822,test2,2020.2.5,Win32,60,,,,,,,
,,,,m,1.414965,0,68,68,68,1,houses/images/16.jpg,houses/images/50.jpg,69,GZ,001,2020-11-21_15h16.11.822,test2,2020.2.5,Win32,60,,,,,,,
,,,,z,1.46747,0,69,69,69,1,houses/images/160.jpg,houses/images/239.jpg,70,GZ,001,2020-11-21_15h16.11.822,test2,2020.2.5,Win32,60,,,,,,,
,,,,m,5.42624,0,70,70,70,1,houses/images/161.jpg,houses/images/289.jpg,71,GZ,001,2020-11-21_15h16.11.822,test2,2020.2.5,Win32,60,,,,,,,
,,,,m,6.732305,0,71,71,71,1,houses/images/162.jpg,houses/images/325.jpg,72,GZ,001,2020-11-21_15h16.11.822,test2,2020.2.5,Win32,60,,,,,,,
,,,,z,10.02494,0,72,72,72,1,houses/images/163.jpg,houses/images/259.jpg,73,GZ,001,2020-11-21_15h16.11.822,test2,2020.2.5,Win32,60,,,,,,,
,,,,m,3.913445,0,73,73,73,1,houses/images/164.jpg,houses/images/316.jpg,74,GZ,001,2020-11-21_15h16.11.822,test2,2020.2.5,Win32,60,,,,,,,
,,,,m,2.76421,0,74,74,74,1,houses/images/165.jpg,houses/images/311.jpg,75,GZ,001,2020-11-21_15h16.11.822,test2,2020.2.5,Win32,60,,,,,,,
,,,,z,2.94328,0,75,75,75,1,houses/images/166.jpg,houses/images/246.jpg,76,GZ,001,2020-11-21_15h16.11.822,test2,2020.2.5,Win32,60,,,,,,,
,,,,m,1.425165,0,76,76,76,1,houses/images/167.jpg,houses/images/269.jpg,77,GZ,001,2020-11-21_15h16.11.822,test2,2020.2.5,Win32,60,,,,,,,
,,,,m,2.59194,0,77,77,77,1,houses/images/168.jpg,houses/images/360.jpg,78,GZ,001,2020-11-21_15h16.11.822,test2,2020.2.5,Win32,60,,,,,,,
,,,,m,2.09766,0,78,78,78,1,houses/images/169.jpg,houses/images/116.jpg,79,GZ,001,2020-11-21_15h16.11.822,test2,2020.2.5,Win32,60,,,,,,,
,,,,z,1.32196,0,79,79,79,1,houses/images/17.jpg,houses/images/245.jpg,80,GZ,001,2020-11-21_15h16.11.822,test2,2020.2.5,Win32,60,,,,,,,
,,,,z,6.94746,0,80,80,80,1,houses/images/170.jpg,houses/images/152.jpg,81,GZ,001,2020-11-21_15h16.11.822,test2,2020.2.5,Win32,60,,,,,,,
,,,,z,2.449445,0,81,81,81,1,houses/images/171.jpg,houses/images/77.jpg,82,GZ,001,2020-11-21_15h16.11.822,test2,2020.2.5,Win32,60,,,,,,,
,,,,z,1.36585,0,82,82,82,1,houses/images/172.jpg,houses/images/154.jpg,83,GZ,001,2020-11-21_15h16.11.822,test2,2020.2.5,Win32,60,,,,,,,
,,,,z,8.572715,0,83,83,83,1,houses/images/273.jpg,houses/images/210.jpg,84,GZ,001,2020-11-21_15h16.11.822,test2,2020.2.5,Win32,60,,,,,,,
,,,,z,1.90584,0,84,84,84,1,houses/images/174.jpg,houses/images/121.jpg,85,GZ,001,2020-11-21_15h16.11.822,test2,2020.2.5,Win32,60,,,,,,,
,,,,z,1.323085,0,85,85,85,1,houses/images/175.jpg,houses/images/47.jpg,86,GZ,001,2020-11-21_15h16.11.822,test2,2020.2.5,Win32,60,,,,,,,
,,,,m,1.48267,0,86,86,86,1,houses/images/176.jpg,houses/images/328.jpg,87,GZ,001,2020-11-21_15h16.11.822,test2,2020.2.5,Win32,60,,,,,,,
,,,,m,1.80271,0,87,87,87,1,houses/images/177.jpg,houses/images/35.jpg,88,GZ,001,2020-11-21_15h16.11.822,test2,2020.2.5,Win32,60,,,,,,,
,,,,z,7.865235,0,88,88,88,1,houses/images/178.jpg,houses/images/299.jpg,89,GZ,001,2020-11-21_15h16.11.822,test2,2020.2.5,Win32,60,,,,,,,
,,,,m,6.683115,0,89,89,89,1,houses/images/179.jpg,houses/images/283.jpg,90,GZ,001,2020-11-21_15h16.11.822,test2,2020.2.5,Win32,60,,,,,,,
,,,,z,4.016235,0,90,90,90,1,houses/images/18.jpg,houses/images/182.jpg,91,GZ,001,2020-11-21_15h16.11.822,test2,2020.2.5,Win32,60,,,,,,,
,,,,m,1.891765,0,91,91,91,1,houses/images/180.jpg,houses/images/327.jpg,92,GZ,001,2020-11-21_15h16.11.822,test2,2020.2.5,Win32,60,,,,,,,
,,,,z,1.91705,0,92,92,92,1,houses/images/281.jpg,houses/images/334.jpg,93,GZ,001,2020-11-21_15h16.11.822,test2,2020.2.5,Win32,60,,,,,,,
,,,,m,1.671275,0,93,93,93,1,houses/images/182.jpg,houses/images/75.jpg,94,GZ,001,2020-11-21_15h16.11.822,test2,2020.2.5,Win32,60,,,,,,,
,,,,m,5.616285,0,94,94,94,1,houses/images/183.jpg,houses/images/137.jpg,95,GZ,001,2020-11-21_15h16.11.822,test2,2020.2.5,Win32,60,,,,,,,
,,,,m,2.17008,0,95,95,95,1,houses/images/184.jpg,houses/images/344.jpg,96,GZ,001,2020-11-21_15h16.11.822,test2,2020.2.5,Win32,60,,,,,,,
,,,,z,4.182675,0,96,96,96,1,houses/images/185.jpg,houses/images/285.jpg,97,GZ,001,2020-11-21_15h16.11.822,test2,2020.2.5,Win32,60,,,,,,,
,,,,m,1.29932,0,97,97,97,1,houses/images/186.jpg,houses/images/230.jpg,98,GZ,001,2020-11-21_15h16.11.822,test2,2020.2.5,Win32,60,,,,,,,
,,,,z,10.22442,0,98,98,98,1,houses/images/187.jpg,houses/images/3.jpg,99,GZ,001,2020-11-21_15h16.11.822,test2,2020.2.5,Win32,60,,,,,,,
,,,,m,2.835125,0,99,99,99,1,houses/images/188.jpg,houses/images/304.jpg,100,GZ,001,2020-11-21_15h16.11.822,test2,2020.2.5,Win32,60,,,,,,,
,,,,m,2.069485,0,100,100,100,1,houses/images/189.jpg,houses/images/17.jpg,101,GZ,001,2020-11-21_15h16.11.822,test2,2020.2.5,Win32,60,,,,,,,
,,,,z,5.418455,0,101,101,101,1,houses/images/19.jpg,houses/images/351.jpg,102,GZ,001,2020-11-21_15h16.11.822,test2,2020.2.5,Win32,60,,,,,,,
,,,,m,7.96685,0,102,102,102,1,houses/images/190.jpg,houses/images/307.jpg,103,GZ,001,2020-11-21_15h16.11.822,test2,2020.2.5,Win32,60,,,,,,,
,,,,z,6.82468,0,103,103,103,1,houses/images/191.jpg,houses/images/326.jpg,104,GZ,001,2020-11-21_15h16.11.822,test2,2020.2.5,Win32,60,,,,,,,
,,,,m,3.15495,0,104,104,104,1,houses/images/292.jpg,houses/images/240.jpg,105,GZ,001,2020-11-21_15h16.11.822,test2,2020.2.5,Win32,60,,,,,,,
,,,,m,2.933055,0,105,105,105,1,houses/images/193.jpg,houses/images/243.jpg,106,GZ,001,2020-11-21_15h16.11.822,test2,2020.2.5,Win32,60,,,,,,,
,,,,m,1.08327,0,106,106,106,1,houses/images/194.jpg,houses/images/291.jpg,107,GZ,001,2020-11-21_15h16.11.822,test2,2020.2.5,Win32,60,,,,,,,
,,,,m,3.816,0,107,107,107,1,houses/images/195.jpg,houses/images/361.jpg,108,GZ,001,2020-11-21_15h16.11.822,test2,2020.2.5,Win32,60,,,,,,,
,,,,m,3.81563,0,108,108,108,1,houses/images/196.jpg,houses/images/30.jpg,109,GZ,001,2020-11-21_15h16.11.822,test2,2020.2.5,Win32,60,,,,,,,
,,,,m,5.349315,0,109,109,109,1,houses/images/197.jpg,houses/images/22.jpg,110,GZ,001,2020-11-21_15h16.11.822,test2,2020.2.5,Win32,60,,,,,,,
,,,,z,6.138425,0,110,110,110,1,houses/images/198.jpg,houses/images/250.jpg,111,GZ,001,2020-11-21_15h16.11.822,test2,2020.2.5,Win32,60,,,,,,,
,,,,m,1.72262,0,111,111,111,1,houses/images/199.jpg,houses/images/323.jpg,112,GZ,001,2020-11-21_15h16.11.822,test2,2020.2.5,Win32,60,,,,,,,
,,,,z,6.01398,0,112,112,112,1,houses/images/2.jpg,houses/images/187.jpg,113,GZ,001,2020-11-21_15h16.11.822,test2,2020.2.5,Win32,60,,,,,,,
,,,,m,2.234055,0,113,113,113,1,houses/images/20.jpg,houses/images/100.jpg,114,GZ,001,2020-11-21_15h16.11.822,test2,2020.2.5,Win32,60,,,,,,,
,,,,z,1.833205,0,114,114,114,1,houses/images/200.jpg,houses/images/238.jpg,115,GZ,001,2020-11-21_15h16.11.822,test2,2020.2.5,Win32,60,,,,,,,
,,,,z,2.056885,0,115,115,115,1,houses/images/201.jpg,houses/images/58.jpg,116,GZ,001,2020-11-21_15h16.11.822,test2,2020.2.5,Win32,60,,,,,,,
,,,,m,9.41666,0,116,116,116,1,houses/images/202.jpg,houses/images/205.jpg,117,GZ,001,2020-11-21_15h16.11.822,test2,2020.2.5,Win32,60,,,,,,,
,,,,z,1.465965,0,117,117,117,1,houses/images/203.jpg,houses/images/40.jpg,118,GZ,001,2020-11-21_15h16.11.822,test2,2020.2.5,Win32,60,,,,,,,
,,,,z,1.752755,0,118,118,118,1,houses/images/204.jpg,houses/images/64.jpg,119,GZ,001,2020-11-21_15h16.11.822,test2,2020.2.5,Win32,60,,,,,,,
,,,,z,1.38258,0,119,119,119,1,houses/images/205.jpg,houses/images/155.jpg,120,GZ,001,2020-11-21_15h16.11.822,test2,2020.2.5,Win32,60,,,,,,,
,,,,m,3.10425,0,120,120,120,1,houses/images/206.jpg,houses/images/199.jpg,121,GZ,001,2020-11-21_15h16.11.822,test2,2020.2.5,Win32,60,,,,,,,
,,,,m,1.987615,0,121,121,121,1,houses/images/207.jpg,houses/images/233.jpg,122,GZ,001,2020-11-21_15h16.11.822,test2,2020.2.5,Win32,60,,,,,,,
,,,,z,8.542065,0,122,122,122,1,houses/images/208.jpg,houses/images/8.jpg,123,GZ,001,2020-11-21_15h16.11.822,test2,2020.2.5,Win32,60,,,,,,,
,,,,z,6.761115,0,123,123,123,1,houses/images/209.jpg,houses/images/167.jpg,124,GZ,001,2020-11-21_15h16.11.822,test2,2020.2.5,Win32,60,,,,,,,
,,,,z,1.60708,0,124,124,124,1,houses/images/21.jpg,houses/images/103.jpg,125,GZ,001,2020-11-21_15h16.11.822,test2,2020.2.5,Win32,60,,,,,,,
,,,,m,10.02244,0,125,125,125,1,houses/images/210.jpg,houses/images/104.jpg,126,GZ,001,2020-11-21_15h16.11.822,test2,2020.2.5,Win32,60,,,,,,,
,,,,m,2.351675,0,126,126,126,1,houses/images/211.jpg,houses/images/327.jpg,127,GZ,001,2020-11-21_15h16.11.822,test2,2020.2.5,Win32,60,,,,,,,
,,,,z,6.650935,0,127,127,127,1,houses/images/212.jpg,houses/images/253.jpg,128,GZ,001,2020-11-21_15h16.11.822,test2,2020.2.5,Win32,60,,,,,,,
,,,,z,2.811415,0,128,128,128,1,houses/images/213.jpg,houses/images/26.jpg,129,GZ,001,2020-11-21_15h16.11.822,test2,2020.2.5,Win32,60,,,,,,,
,,,,z,1.792605,0,129,129,129,1,houses/images/214.jpg,houses/images/198.jpg,130,GZ,001,2020-11-21_15h16.11.822,test2,2020.2.5,Win32,60,,,,,,,
,,,,z,4.05979,0,130,130,130,1,houses/images/215.jpg,houses/images/4.jpg,131,GZ,001,2020-11-21_15h16.11.822,test2,2020.2.5,Win32,60,,,,,,,
,,,,m,2.01222,0,131,131,131,1,houses/images/316.jpg,houses/images/62.jpg,132,GZ,001,2020-11-21_15h16.11.822,test2,2020.2.5,Win32,60,,,,,,,
,,,,m,7.732405,0,132,132,132,1,houses/images/217.jpg,houses/images/114.jpg,133,GZ,001,2020-11-21_15h16.11.822,test2,2020.2.5,Win32,60,,,,,,,
,,,,m,2.69779,0,133,133,133,1,houses/images/318.jpg,houses/images/308.jpg,134,GZ,001,2020-11-21_15h16.11.822,test2,2020.2.5,Win32,60,,,,,,,
,,,,z,6.61473,0,134,134,134,1,houses/images/219.jpg,houses/images/254.jpg,135,GZ,001,2020-11-21_15h16.11.822,test2,2020.2.5,Win32,60,,,,,,,
,,,,z,2.059975,0,135,135,135,1,houses/images/22.jpg,houses/images/170.jpg,136,GZ,001,2020-11-21_15h16.11.822,test2,2020.2.5,Win32,60,,,,,,,
,,,,m,1.39942,0,136,136,136,1,houses/images/220.jpg,houses/images/179.jpg,137,GZ,001,2020-11-21_15h16.11.822,test2,2020.2.5,Win32,60,,,,,,,
,,,,m,3.81603,0,137,137,137,1,houses/images/221.jpg,houses/images/238.jpg,138,GZ,001,2020-11-21_15h16.11.822,test2,2020.2.5,Win32,60,,,,,,,
,,,,m,6.676,0,138,138,138,1,houses/images/222.jpg,houses/images/256.jpg,139,GZ,001,2020-11-21_15h16.11.822,test2,2020.2.5,Win32,60,,,,,,,
,,,,m,1.65147,0,139,139,139,1,houses/images/223.jpg,houses/images/322.jpg,140,GZ,001,2020-11-21_15h16.11.822,test2,2020.2.5,Win32,60,,,,,,,
,,,,z,1.76568,0,140,140,140,1,houses/images/224.jpg,houses/images/209.jpg,141,GZ,001,2020-11-21_15h16.11.822,test2,2020.2.5,Win32,60,,,,,,,
,,,,z,1.640505,0,141,141,141,1,houses/images/225.jpg,houses/images/219.jpg,142,GZ,001,2020-11-21_15h16.11.822,test2,2020.2.5,Win32,60,,,,,,,
,,,,m,3.01373,0,142,142,142,1,houses/images/226.jpg,houses/images/79.jpg,143,GZ,001,2020-11-21_15h16.11.822,test2,2020.2.5,Win32,60,,,,,,,
,,,,z,2.91471,0,143,143,143,1,houses/images/227.jpg,houses/images/279.jpg,144,GZ,001,2020-11-21_15h16.11.822,test2,2020.2.5,Win32,60,,,,,,,
,,,,z,1.51557,0,144,144,144,1,houses/images/228.jpg,houses/images/111.jpg,145,GZ,001,2020-11-21_15h16.11.822,test2,2020.2.5,Win32,60,,,,,,,
,,,,m,4.288615,0,145,145,145,1,houses/images/229.jpg,houses/images/257.jpg,146,GZ,001,2020-11-21_15h16.11.822,test2,2020.2.5,Win32,60,,,,,,,
,,,,z,7.182705,0,146,146,146,1,houses/images/23.jpg,houses/images/318.jpg,147,GZ,001,2020-11-21_15h16.11.822,test2,2020.2.5,Win32,60,,,,,,,
,,,,m,8.97168,0,147,147,147,1,houses/images/230.jpg,houses/images/312.jpg,148,GZ,001,2020-11-21_15h16.11.822,test2,2020.2.5,Win32,60,,,,,,,
,,,,m,6.63294,0,148,148,148,1,houses/images/231.jpg,houses/images/253.jpg,149,GZ,001,2020-11-21_15h16.11.822,test2,2020.2.5,Win32,60,,,,,,,
,,,,z,4.765785,0,149,149,149,1,houses/images/232.jpg,houses/images/236.jpg,150,GZ,001,2020-11-21_15h16.11.822,test2,2020.2.5,Win32,60,,,,,,,
,,,,z,2.405695,0,150,150,150,1,houses/images/233.jpg,houses/images/66.jpg,151,GZ,001,2020-11-21_15h16.11.822,test2,2020.2.5,Win32,60,,,,,,,
,,,,m,2.69981,0,151,151,151,1,houses/images/234.jpg,houses/images/138.jpg,152,GZ,001,2020-11-21_15h16.11.822,test2,2020.2.5,Win32,60,,,,,,,
,,,,z,2.767095,0,152,152,152,1,houses/images/235.jpg,houses/images/124.jpg,153,GZ,001,2020-11-21_15h16.11.822,test2,2020.2.5,Win32,60,,,,,,,
,,,,z,4.0987,0,153,153,153,1,houses/images/236.jpg,houses/images/160.jpg,154,GZ,001,2020-11-21_15h16.11.822,test2,2020.2.5,Win32,60,,,,,,,
,,,,z,3.355315,0,154,154,154,1,houses/images/237.jpg,houses/images/314.jpg,155,GZ,001,2020-11-21_15h16.11.822,test2,2020.2.5,Win32,60,,,,,,,
,,,,m,2.365055,0,155,155,155,1,houses/images/238.jpg,houses/images/145.jpg,156,GZ,001,2020-11-21_15h16.11.822,test2,2020.2.5,Win32,60,,,,,,,
,,,,m,3.119225,0,156,156,156,1,houses/images/239.jpg,houses/images/195.jpg,157,GZ,001,2020-11-21_15h16.11.822,test2,2020.2.5,Win32,60,,,,,,,
,,,,z,6.7201,0,157,157,157,1,houses/images/24.jpg,houses/images/0.jpg,158,GZ,001,2020-11-21_15h16.11.822,test2,2020.2.5,Win32,60,,,,,,,
,,,,z,1.097925,0,158,158,158,1,houses/images/240.jpg,houses/images/81.jpg,159,GZ,001,2020-11-21_15h16.11.822,test2,2020.2.5,Win32,60,,,,,,,
,,,,m,1.04543,0,159,159,159,1,houses/images/241.jpg,houses/images/226.jpg,160,GZ,001,2020-11-21_15h16.11.822,test2,2020.2.5,Win32,60,,,,,,,
,,,,m,1.832565,0,160,160,160,1,houses/images/342.jpg,houses/images/319.jpg,161,GZ,001,2020-11-21_15h16.11.822,test2,2020.2.5,Win32,60,,,,,,,
,,,,z,4.5216,0,161,161,161,1,houses/images/243.jpg,houses/images/23.jpg,162,GZ,001,2020-11-21_15h16.11.822,test2,2020.2.5,Win32,60,,,,,,,
,,,,m,2.50584,0,162,162,162,1,houses/images/244.jpg,houses/images/146.jpg,163,GZ,001,2020-11-21_15h16.11.822,test2,2020.2.5,Win32,60,,,,,,,
,,,,m,1.715075,0,163,163,163,1,houses/images/245.jpg,houses/images/28.jpg,164,GZ,001,2020-11-21_15h16.11.822,test2,2020.2.5,Win32,60,,,,,,,
,,,,m,1.59874,0,164,164,164,1,houses/images/246.jpg,houses/images/157.jpg,165,GZ,001,2020-11-21_15h16.11.822,test2,2020.2.5,Win32,60,,,,,,,
,,,,z,1.36929,0,165,165,165,1,houses/images/247.jpg,houses/images/2.jpg,166,GZ,001,2020-11-21_15h16.11.822,test2,2020.2.5,Win32,60,,,,,,,
,,,,m,2.124525,0,166,166,166,1,houses/images/248.jpg,houses/images/87.jpg,167,GZ,001,2020-11-21_15h16.11.822,test2,2020.2.5,Win32,60,,,,,,,
,,,,m,5.01484,0,167,167,167,1,houses/images/249.jpg,houses/images/270.jpg,168,GZ,001,2020-11-21_15h16.11.822,test2,2020.2.5,Win32,60,,,,,,,
,,,,z,8.23241,0,168,168,168,1,houses/images/25.jpg,houses/images/67.jpg,169,GZ,001,2020-11-21_15h16.11.822,test2,2020.2.5,Win32,60,,,,,,,
,,,,z,3.582175,0,169,169,169,1,houses/images/250.jpg,houses/images/234.jpg,170,GZ,001,2020-11-21_15h16.11.822,test2,2020.2.5,Win32,60,,,,,,,
,,,,z,2.183135,0,170,170,170,1,houses/images/251.jpg,houses/images/16.jpg,171,GZ,001,2020-11-21_15h16.11.822,test2,2020.2.5,Win32,60,,,,,,,
,,,,z,1.38247,0,171,171,171,1,houses/images/252.jpg,houses/images/12.jpg,172,GZ,001,2020-11-21_15h16.11.822,test2,2020.2.5,Win32,60,,,,,,,
,,,,m,2.01618,0,172,172,172,1,houses/images/253.jpg,houses/images/185.jpg,173,GZ,001,2020-11-21_15h16.11.822,test2,2020.2.5,Win32,60,,,,,,,
,,,,z,3.38872,0,173,173,173,1,houses/images/254.jpg,houses/images/39.jpg,174,GZ,001,2020-11-21_15h16.11.822,test2,2020.2.5,Win32,60,,,,,,,
,,,,z,5.08692,0,174,174,174,1,houses/images/255.jpg,houses/images/237.jpg,175,GZ,001,2020-11-21_15h16.11.822,test2,2020.2.5,Win32,60,,,,,,,
,,,,z,1.84048,0,175,175,175,1,houses/images/256.jpg,houses/images/356.jpg,176,GZ,001,2020-11-21_15h16.11.822,test2,2020.2.5,Win32,60,,,,,,,
,,,,z,1.81958,0,176,176,176,1,houses/images/257.jpg,houses/images/107.jpg,177,GZ,001,2020-11-21_15h16.11.822,test2,2020.2.5,Win32,60,,,,,,,
,,,,z,11.76559,0,177,177,177,1,houses/images/258.jpg,houses/images/84.jpg,178,GZ,001,2020-11-21_15h16.11.822,test2,2020.2.5,Win32,60,,,,,,,
,,,,m,5.032925,0,178,178,178,1,houses/images/259.jpg,houses/images/119.jpg,179,GZ,001,2020-11-21_15h16.11.822,test2,2020.2.5,Win32,60,,,,,,,
,,,,m,2.41623,0,179,179,179,1,houses/images/26.jpg,houses/images/227.jpg,180,GZ,001,2020-11-21_15h16.11.822,test2,2020.2.5,Win32,60,,,,,,,
,,,,z,3.230645,0,180,180,180,1,houses/images/260.jpg,houses/images/238.jpg,181,GZ,001,2020-11-21_15h16.11.822,test2,2020.2.5,Win32,60,,,,,,,
,,,,m,2.722185,0,181,181,181,1,houses/images/261.jpg,houses/images/337.jpg,182,GZ,001,2020-11-21_15h16.11.822,test2,2020.2.5,Win32,60,,,,,,,
,,,,m,4.335265,0,182,182,182,1,houses/images/262.jpg,houses/images/214.jpg,183,GZ,001,2020-11-21_15h16.11.822,test2,2020.2.5,Win32,60,,,,,,,
,,,,z,1.651895,0,183,183,183,1,houses/images/263.jpg,houses/images/239.jpg,184,GZ,001,2020-11-21_15h16.11.822,test2,2020.2.5,Win32,60,,,,,,,
,,,,m,5.5331,0,184,184,184,1,houses/images/264.jpg,houses/images/149.jpg,185,GZ,001,2020-11-21_15h16.11.822,test2,2020.2.5,Win32,60,,,,,,,
,,,,m,2.86597,0,185,185,185,1,houses/images/265.jpg,houses/images/68.jpg,186,GZ,001,2020-11-21_15h16.11.822,test2,2020.2.5,Win32,60,,,,,,,
,,,,m,1.654575,0,186,186,186,1,houses/images/266.jpg,houses/images/271.jpg,187,GZ,001,2020-11-21_15h16.11.822,test2,2020.2.5,Win32,60,,,,,,,
,,,,m,4.30485,0,187,187,187,1,houses/images/267.jpg,houses/images/87.jpg,188,GZ,001,2020-11-21_15h16.11.822,test2,2020.2.5,Win32,60,,,,,,,
,,,,z,3.382005,0,188,188,188,1,houses/images/268.jpg,houses/images/348.jpg,189,GZ,001,2020-11-21_15h16.11.822,test2,2020.2.5,Win32,60,,,,,,,
,,,,m,5.69864,0,189,189,189,1,houses/images/269.jpg,houses/images/228.jpg,190,GZ,001,2020-11-21_15h16.11.822,test2,2020.2.5,Win32,60,,,,,,,
,,,,m,1.952975,0,190,190,190,1,houses/images/27.jpg,houses/images/317.jpg,191,GZ,001,2020-11-21_15h16.11.822,test2,2020.2.5,Win32,60,,,,,,,
,,,,m,3.289125,0,191,191,191,1,houses/images/270.jpg,houses/images/10.jpg,192,GZ,001,2020-11-21_15h16.11.822,test2,2020.2.5,Win32,60,,,,,,,
,,,,z,1.116175,0,192,192,192,1,houses/images/271.jpg,houses/images/222.jpg,193,GZ,001,2020-11-21_15h16.11.822,test2,2020.2.5,Win32,60,,,,,,,
,,,,z,3.86535,0,193,193,193,1,houses/images/272.jpg,houses/images/314.jpg,194,GZ,001,2020-11-21_15h16.11.822,test2,2020.2.5,Win32,60,,,,,,,
,,,,m,4.523155,0,194,194,194,1,houses/images/273.jpg,houses/images/28.jpg,195,GZ,001,2020-11-21_15h16.11.822,test2,2020.2.5,Win32,60,,,,,,,
,,,,z,4.415705,0,195,195,195,1,houses/images/174.jpg,houses/images/294.jpg,196,GZ,001,2020-11-21_15h16.11.822,test2,2020.2.5,Win32,60,,,,,,,
,,,,m,4.540275,0,196,196,196,1,houses/images/275.jpg,houses/images/60.jpg,197,GZ,001,2020-11-21_15h16.11.822,test2,2020.2.5,Win32,60,,,,,,,
,,,,z,2.92421,0,197,197,197,1,houses/images/276.jpg,houses/images/144.jpg,198,GZ,001,2020-11-21_15h16.11.822,test2,2020.2.5,Win32,60,,,,,,,
,,,,z,2.348375,0,198,198,198,1,houses/images/277.jpg,houses/images/168.jpg,199,GZ,001,2020-11-21_15h16.11.822,test2,2020.2.5,Win32,60,,,,,,,
,,,,z,1.48532,0,199,199,199,1,houses/images/278.jpg,houses/images/206.jpg,200,GZ,001,2020-11-21_15h16.11.822,test2,2020.2.5,Win32,60,,,,,,,
,,,,z,5.27783,,,,,,houses/images/279.jpg,houses/images/91.jpg,1,GZ,001,2020-11-21_15h16.11.822,test2,2020.2.5,Win32,60,space,5.556645,0,0,0,0,1
,,,,z,4.91259,,,,,,houses/images/28.jpg,houses/images/49.jpg,2,GZ,001,2020-11-21_15h16.11.822,test2,2020.2.5,Win32,60,,,0,1,1,1,1
,,,,z,1.18291,,,,,,houses/images/280.jpg,houses/images/163.jpg,3,GZ,001,2020-11-21_15h16.11.822,test2,2020.2.5,Win32,60,,,0,2,2,2,1
,,,,z,1.003065,,,,,,houses/images/281.jpg,houses/images/176.jpg,4,GZ,001,2020-11-21_15h16.11.822,test2,2020.2.5,Win32,60,,,0,3,3,3,1
,,,,m,2.548685,,,,,,houses/images/282.jpg,houses/images/263.jpg,5,GZ,001,2020-11-21_15h16.11.822,test2,2020.2.5,Win32,60,,,0,4,4,4,1
,,,,m,4.259695,,,,,,houses/images/283.jpg,houses/images/303.jpg,6,GZ,001,2020-11-21_15h16.11.822,test2,2020.2.5,Win32,60,,,0,5,5,5,1
,,,,z,1.675185,,,,,,houses/images/284.jpg,houses/images/184.jpg,7,GZ,001,2020-11-21_15h16.11.822,test2,2020.2.5,Win32,60,,,0,6,6,6,1
,,,,m,4.911745,,,,,,houses/images/285.jpg,houses/images/264.jpg,8,GZ,001,2020-11-21_15h16.11.822,test2,2020.2.5,Win32,60,,,0,7,7,7,1
,,,,z,2.167645,,,,,,houses/images/286.jpg,houses/images/89.jpg,9,GZ,001,2020-11-21_15h16.11.822,test2,2020.2.5,Win32,60,,,0,8,8,8,1
,,,,m,3.613395,,,,,,houses/images/187.jpg,houses/images/350.jpg,10,GZ,001,2020-11-21_15h16.11.822,test2,2020.2.5,Win32,60,,,0,9,9,9,1
,,,,m,6.86989,,,,,,houses/images/288.jpg,houses/images/267.jpg,11,GZ,001,2020-11-21_15h16.11.822,test2,2020.2.5,Win32,60,,,0,10,10,10,1
,,,,m,2.198445,,,,,,houses/images/289.jpg,houses/images/332.jpg,12,GZ,001,2020-11-21_15h16.11.822,test2,2020.2.5,Win32,60,,,0,11,11,11,1
,,,,m,2.04875,,,,,,houses/images/29.jpg,houses/images/61.jpg,13,GZ,001,2020-11-21_15h16.11.822,test2,2020.2.5,Win32,60,,,0,12,12,12,1
,,,,z,5.98384,,,,,,houses/images/290.jpg,houses/images/102.jpg,14,GZ,001,2020-11-21_15h16.11.822,test2,2020.2.5,Win32,60,,,0,13,13,13,1
,,,,z,1.90309,,,,,,houses/images/291.jpg,houses/images/220.jpg,15,GZ,001,2020-11-21_15h16.11.822,test2,2020.2.5,Win32,60,,,0,14,14,14,1
,,,,z,1.912535,,,,,,houses/images/292.jpg,houses/images/121.jpg,16,GZ,001,2020-11-21_15h16.11.822,test2,2020.2.5,Win32,60,,,0,15,15,15,1
,,,,z,1.800575,,,,,,houses/images/293.jpg,houses/images/25.jpg,17,GZ,001,2020-11-21_15h16.11.822,test2,2020.2.5,Win32,60,,,0,16,16,16,1
,,,,m,1.18267,,,,,,houses/images/294.jpg,houses/images/284.jpg,18,GZ,001,2020-11-21_15h16.11.822,test2,2020.2.5,Win32,60,,,0,17,17,17,1
,,,,z,1.900215,,,,,,houses/images/295.jpg,houses/images/273.jpg,19,GZ,001,2020-11-21_15h16.11.822,test2,2020.2.5,Win32,60,,,0,18,18,18,1
,,,,z,4.887205,,,,,,houses/images/296.jpg,houses/images/122.jpg,20,GZ,001,2020-11-21_15h16.11.822,test2,2020.2.5,Win32,60,,,0,19,19,19,1
,,,,z,1.28997,,,,,,houses/images/297.jpg,houses/images/217.jpg,21,GZ,001,2020-11-21_15h16.11.822,test2,2020.2.5,Win32,60,,,0,20,20,20,1
,,,,z,4.23345,,,,,,houses/images/298.jpg,houses/images/178.jpg,22,GZ,001,2020-11-21_15h16.11.822,test2,2020.2.5,Win32,60,,,0,21,21,21,1
,,,,z,1.99936,,,,,,houses/images/299.jpg,houses/images/43.jpg,23,GZ,001,2020-11-21_15h16.11.822,test2,2020.2.5,Win32,60,,,0,22,22,22,1
,,,,m,2.574575,,,,,,houses/images/3.jpg,houses/images/229.jpg,24,GZ,001,2020-11-21_15h16.11.822,test2,2020.2.5,Win32,60,,,0,23,23,23,1
,,,,m,4.42076,,,,,,houses/images/30.jpg,houses/images/177.jpg,25,GZ,001,2020-11-21_15h16.11.822,test2,2020.2.5,Win32,60,,,0,24,24,24,1
,,,,z,2.021445,,,,,,houses/images/300.jpg,houses/images/342.jpg,26,GZ,001,2020-11-21_15h16.11.822,test2,2020.2.5,Win32,60,,,0,25,25,25,1
,,,,z,7.985435,,,,,,houses/images/201.jpg,houses/images/57.jpg,27,GZ,001,2020-11-21_15h16.11.822,test2,2020.2.5,Win32,60,,,0,26,26,26,1
,,,,z,1.032595,,,,,,houses/images/302.jpg,houses/images/186.jpg,28,GZ,001,2020-11-21_15h16.11.822,test2,2020.2.5,Win32,60,,,0,27,27,27,1
,,,,m,2.58277,,,,,,houses/images/303.jpg,houses/images/131.jpg,29,GZ,001,2020-11-21_15h16.11.822,test2,2020.2.5,Win32,60,,,0,28,28,28,1
,,,,z,5.21851,,,,,,houses/images/304.jpg,houses/images/183.jpg,30,GZ,001,2020-11-21_15h16.11.822,test2,2020.2.5,Win32,60,,,0,29,29,29,1
,,,,z,5.13119,,,,,,houses/images/305.jpg,houses/images/200.jpg,31,GZ,001,2020-11-21_15h16.11.822,test2,2020.2.5,Win32,60,,,0,30,30,30,1
,,,,z,6.148965,,,,,,houses/images/306.jpg,houses/images/94.jpg,32,GZ,001,2020-11-21_15h16.11.822,test2,2020.2.5,Win32,60,,,0,31,31,31,1
,,,,m,4.38635,,,,,,houses/images/307.jpg,houses/images/96.jpg,33,GZ,001,2020-11-21_15h16.11.822,test2,2020.2.5,Win32,60,,,0,32,32,32,1
,,,,m,3.18281,,,,,,houses/images/308.jpg,houses/images/76.jpg,34,GZ,001,2020-11-21_15h16.11.822,test2,2020.2.5,Win32,60,,,0,33,33,33,1
,,,,z,4.62007,,,,,,houses/images/309.jpg,houses/images/78.jpg,35,GZ,001,2020-11-21_15h16.11.822,test2,2020.2.5,Win32,60,,,0,34,34,34,1
,,,,m,5.69867,,,,,,houses/images/31.jpg,houses/images/76.jpg,36,GZ,001,2020-11-21_15h16.11.822,test2,2020.2.5,Win32,60,,,0,35,35,35,1
,,,,m,3.952385,,,,,,houses/images/310.jpg,houses/images/128.jpg,37,GZ,001,2020-11-21_15h16.11.822,test2,2020.2.5,Win32,60,,,0,36,36,36,1
,,,,z,2.267115,,,,,,houses/images/311.jpg,houses/images/190.jpg,38,GZ,001,2020-11-21_15h16.11.822,test2,2020.2.5,Win32,60,,,0,37,37,37,1
,,,,z,1.49018,,,,,,houses/images/312.jpg,houses/images/5.jpg,39,GZ,001,2020-11-21_15h16.11.822,test2,2020.2.5,Win32,60,,,0,38,38,38,1
,,,,z,1.545955,,,,,,houses/images/313.jpg,houses/images/188.jpg,40,GZ,001,2020-11-21_15h16.11.822,test2,2020.2.5,Win32,60,,,0,39,39,39,1
,,,,z,1.056625,,,,,,houses/images/314.jpg,houses/images/342.jpg,41,GZ,001,2020-11-21_15h16.11.822,test2,2020.2.5,Win32,60,,,0,40,40,40,1
,,,,z,3.57416,,,,,,houses/images/315.jpg,houses/images/288.jpg,42,GZ,001,2020-11-21_15h16.11.822,test2,2020.2.5,Win32,60,,,0,41,41,41,1
,,,,m,1.16826,,,,,,houses/images/316.jpg,houses/images/321.jpg,43,GZ,001,2020-11-21_15h16.11.822,test2,2020.2.5,Win32,60,,,0,42,42,42,1
,,,,m,3.38045,,,,,,houses/images/317.jpg,houses/images/82.jpg,44,GZ,001,2020-11-21_15h16.11.822,test2,2020.2.5,Win32,60,,,0,43,43,43,1
,,,,z,2.499715,,,,,,houses/images/318.jpg,houses/images/169.jpg,45,GZ,001,2020-11-21_15h16.11.822,test2,2020.2.5,Win32,60,,,0,44,44,44,1
,,,,z,1.04416,,,,,,houses/images/319.jpg,houses/images/224.jpg,46,GZ,001,2020-11-21_15h16.11.822,test2,2020.2.5,Win32,60,,,0,45,45,45,1
,,,,z,4.24979,,,,,,houses/images/32.jpg,houses/images/175.jpg,47,GZ,001,2020-11-21_15h16.11.822,test2,2020.2.5,Win32,60,,,0,46,46,46,1
,,,,m,4.064965,,,,,,houses/images/320.jpg,houses/images/247.jpg,48,GZ,001,2020-11-21_15h16.11.822,test2,2020.2.5,Win32,60,,,0,47,47,47,1
,,,,m,11.30221,,,,,,houses/images/321.jpg,houses/images/97.jpg,49,GZ,001,2020-11-21_15h16.11.822,test2,2020.2.5,Win32,60,,,0,48,48,48,1
,,,,z,5.56661,,,,,,houses/images/322.jpg,houses/images/74.jpg,50,GZ,001,2020-11-21_15h16.11.822,test2,2020.2.5,Win32,60,,,0,49,49,49,1
,,,,z,1.681935,,,,,,houses/images/323.jpg,houses/images/148.jpg,51,GZ,001,2020-11-21_15h16.11.822,test2,2020.2.5,Win32,60,,,0,50,50,50,1
,,,,z,2.667875,,,,,,houses/images/324.jpg,houses/images/313.jpg,52,GZ,001,2020-11-21_15h16.11.822,test2,2020.2.5,Win32,60,,,0,51,51,51,1
,,,,m,3.18272,,,,,,houses/images/325.jpg,houses/images/11.jpg,53,GZ,001,2020-11-21_15h16.11.822,test2,2020.2.5,Win32,60,,,0,52,52,52,1
,,,,z,1.63619,,,,,,houses/images/326.jpg,houses/images/21.jpg,54,GZ,001,2020-11-21_15h16.11.822,test2,2020.2.5,Win32,60,,,0,53,53,53,1
,,,,z,3.619575,,,,,,houses/images/327.jpg,houses/images/281.jpg,55,GZ,001,2020-11-21_15h16.11.822,test2,2020.2.5,Win32,60,,,0,54,54,54,1
,,,,m,1.834075,,,,,,houses/images/328.jpg,houses/images/172.jpg,56,GZ,001,2020-11-21_15h16.11.822,test2,2020.2.5,Win32,60,,,0,55,55,55,1
,,,,z,3.76584,,,,,,houses/images/329.jpg,houses/images/273.jpg,57,GZ,001,2020-11-21_15h16.11.822,test2,2020.2.5,Win32,60,,,0,56,56,56,1
,,,,m,4.63221,,,,,,houses/images/33.jpg,houses/images/239.jpg,58,GZ,001,2020-11-21_15h16.11.822,test2,2020.2.5,Win32,60,,,0,57,57,57,1
,,,,z,4.16602,,,,,,houses/images/330.jpg,houses/images/333.jpg,59,GZ,001,2020-11-21_15h16.11.822,test2,2020.2.5,Win32,60,,,0,58,58,58,1
,,,,z,4.68263,,,,,,houses/images/331.jpg,houses/images/361.jpg,60,GZ,001,2020-11-21_15h16.11.822,test2,2020.2.5,Win32,60,,,0,59,59,59,1
,,,,z,1.499685,,,,,,houses/images/332.jpg,houses/images/91.jpg,61,GZ,001,2020-11-21_15h16.11.822,test2,2020.2.5,Win32,60,,,0,60,60,60,1
,,,,m,3.866045,,,,,,houses/images/333.jpg,houses/images/158.jpg,62,GZ,001,2020-11-21_15h16.11.822,test2,2020.2.5,Win32,60,,,0,61,61,61,1
,,,,z,1.47212,,,,,,houses/images/334.jpg,houses/images/10.jpg,63,GZ,001,2020-11-21_15h16.11.822,test2,2020.2.5,Win32,60,,,0,62,62,62,1
,,,,z,2.41671,,,,,,houses/images/335.jpg,houses/images/331.jpg,64,GZ,001,2020-11-21_15h16.11.822,test2,2020.2.5,Win32,60,,,0,63,63,63,1
,,,,m,2.714835,,,,,,houses/images/336.jpg,houses/images/171.jpg,65,GZ,001,2020-11-21_15h16.11.822,test2,2020.2.5,Win32,60,,,0,64,64,64,1
,,,,z,4.76537,,,,,,houses/images/337.jpg,houses/images/226.jpg,66,GZ,001,2020-11-21_15h16.11.822,test2,2020.2.5,Win32,60,,,0,65,65,65,1
,,,,m,1.864095,,,,,,houses/images/238.jpg,houses/images/214.jpg,67,GZ,001,2020-11-21_15h16.11.822,test2,2020.2.5,Win32,60,,,0,66,66,66,1
,,,,m,1.14949,,,,,,houses/images/239.jpg,houses/images/130.jpg,68,GZ,001,2020-11-21_15h16.11.822,test2,2020.2.5,Win32,60,,,0,67,67,67,1
,,,,z,3.20023,,,,,,houses/images/34.jpg,houses/images/85.jpg,69,GZ,001,2020-11-21_15h16.11.822,test2,2020.2.5,Win32,60,,,0,68,68,68,1
,,,,z,3.24882,,,,,,houses/images/340.jpg,houses/images/248.jpg,70,GZ,001,2020-11-21_15h16.11.822,test2,2020.2.5,Win32,60,,,0,69,69,69,1
,,,,m,2.017705,,,,,,houses/images/341.jpg,houses/images/215.jpg,71,GZ,001,2020-11-21_15h16.11.822,test2,2020.2.5,Win32,60,,,0,70,70,70,1
,,,,z,6.033715,,,,,,houses/images/342.jpg,houses/images/155.jpg,72,GZ,001,2020-11-21_15h16.11.822,test2,2020.2.5,Win32,60,,,0,71,71,71,1
,,,,m,3.565065,,,,,,houses/images/343.jpg,houses/images/193.jpg,73,GZ,001,2020-11-21_15h16.11.822,test2,2020.2.5,Win32,60,,,0,72,72,72,1
,,,,m,1.41733,,,,,,houses/images/344.jpg,houses/images/324.jpg,74,GZ,001,2020-11-21_15h16.11.822,test2,2020.2.5,Win32,60,,,0,73,73,73,1
,,,,m,2.272575,,,,,,houses/images/345.jpg,houses/images/86.jpg,75,GZ,001,2020-11-21_15h16.11.822,test2,2020.2.5,Win32,60,,,0,74,74,74,1
,,,,z,1.11623,,,,,,houses/images/246.jpg,houses/images/295.jpg,76,GZ,001,2020-11-21_15h16.11.822,test2,2020.2.5,Win32,60,,,0,75,75,75,1
,,,,z,1.757755,,,,,,houses/images/347.jpg,houses/images/292.jpg,77,GZ,001,2020-11-21_15h16.11.822,test2,2020.2.5,Win32,60,,,0,76,76,76,1
,,,,z,2.632645,,,,,,houses/images/348.jpg,houses/images/55.jpg,78,GZ,001,2020-11-21_15h16.11.822,test2,2020.2.5,Win32,60,,,0,77,77,77,1
,,,,m,1.916095,,,,,,houses/images/349.jpg,houses/images/1.jpg,79,GZ,001,2020-11-21_15h16.11.822,test2,2020.2.5,Win32,60,,,0,78,78,78,1
,,,,m,4.388345,,,,,,houses/images/35.jpg,houses/images/73.jpg,80,GZ,001,2020-11-21_15h16.11.822,test2,2020.2.5,Win32,60,,,0,79,79,79,1
,,,,m,1.65242,,,,,,houses/images/350.jpg,houses/images/44.jpg,81,GZ,001,2020-11-21_15h16.11.822,test2,2020.2.5,Win32,60,,,0,80,80,80,1
,,,,m,1.88139,,,,,,houses/images/351.jpg,houses/images/6.jpg,82,GZ,001,2020-11-21_15h16.11.822,test2,2020.2.5,Win32,60,,,0,81,81,81,1
,,,,m,3.719545,,,,,,houses/images/352.jpg,houses/images/20.jpg,83,GZ,001,2020-11-21_15h16.11.822,test2,2020.2.5,Win32,60,,,0,82,82,82,1
,,,,m,1.46736,,,,,,houses/images/353.jpg,houses/images/18.jpg,84,GZ,001,2020-11-21_15h16.11.822,test2,2020.2.5,Win32,60,,,0,83,83,83,1
,,,,m,2.616305,,,,,,houses/images/354.jpg,houses/images/347.jpg,85,GZ,001,2020-11-21_15h16.11.822,test2,2020.2.5,Win32,60,,,0,84,84,84,1
,,,,z,1.01577,,,,,,houses/images/355.jpg,houses/images/27.jpg,86,GZ,001,2020-11-21_15h16.11.822,test2,2020.2.5,Win32,60,,,0,85,85,85,1
,,,,m,1.93317,,,,,,houses/images/356.jpg,houses/images/276.jpg,87,GZ,001,2020-11-21_15h16.11.822,test2,2020.2.5,Win32,60,,,0,86,86,86,1
,,,,m,1.70338,,,,,,houses/images/357.jpg,houses/images/345.jpg,88,GZ,001,2020-11-21_15h16.11.822,test2,2020.2.5,Win32,60,,,0,87,87,87,1
,,,,z,1.450225,,,,,,houses/images/358.jpg,houses/images/235.jpg,89,GZ,001,2020-11-21_15h16.11.822,test2,2020.2.5,Win32,60,,,0,88,88,88,1
,,,,m,6.316255,,,,,,houses/images/359.jpg,houses/images/115.jpg,90,GZ,001,2020-11-21_15h16.11.822,test2,2020.2.5,Win32,60,,,0,89,89,89,1
,,,,z,1.53653,,,,,,houses/images/36.jpg,houses/images/310.jpg,91,GZ,001,2020-11-21_15h16.11.822,test2,2020.2.5,Win32,60,,,0,90,90,90,1
,,,,m,1.80028,,,,,,houses/images/360.jpg,houses/images/93.jpg,92,GZ,001,2020-11-21_15h16.11.822,test2,2020.2.5,Win32,60,,,0,91,91,91,1
,,,,z,1.382865,,,,,,houses/images/361.jpg,houses/images/212.jpg,93,GZ,001,2020-11-21_15h16.11.822,test2,2020.2.5,Win32,60,,,0,92,92,92,1
,,,,m,3.666325,,,,,,houses/images/62.jpg,houses/images/51.jpg,94,GZ,001,2020-11-21_15h16.11.822,test2,2020.2.5,Win32,60,,,0,93,93,93,1
,,,,z,5.1402,,,,,,houses/images/37.jpg,houses/images/108.jpg,95,GZ,001,2020-11-21_15h16.11.822,test2,2020.2.5,Win32,60,,,0,94,94,94,1
,,,,m,3.6493,,,,,,houses/images/38.jpg,houses/images/127.jpg,96,GZ,001,2020-11-21_15h16.11.822,test2,2020.2.5,Win32,60,,,0,95,95,95,1
,,,,m,2.14916,,,,,,houses/images/39.jpg,houses/images/52.jpg,97,GZ,001,2020-11-21_15h16.11.822,test2,2020.2.5,Win32,60,,,0,96,96,96,1
,,,,m,8.24973,,,,,,houses/images/4.jpg,houses/images/318.jpg,98,GZ,001,2020-11-21_15h16.11.822,test2,2020.2.5,Win32,60,,,0,97,97,97,1
,,,,m,1.38474,,,,,,houses/images/40.jpg,houses/images/201.jpg,99,GZ,001,2020-11-21_15h16.11.822,test2,2020.2.5,Win32,60,,,0,98,98,98,1
,,,,m,3.98265,,,,,,houses/images/41.jpg,houses/images/7.jpg,100,GZ,001,2020-11-21_15h16.11.822,test2,2020.2.5,Win32,60,,,0,99,99,99,1
,,,,z,1.132095,,,,,,houses/images/42.jpg,houses/images/340.jpg,101,GZ,001,2020-11-21_15h16.11.822,test2,2020.2.5,Win32,60,,,0,100,100,100,1
,,,,z,5.618535,,,,,,houses/images/43.jpg,houses/images/150.jpg,102,GZ,001,2020-11-21_15h16.11.822,test2,2020.2.5,Win32,60,,,0,101,101,101,1
,,,,z,4.4655,,,,,,houses/images/44.jpg,houses/images/246.jpg,103,GZ,001,2020-11-21_15h16.11.822,test2,2020.2.5,Win32,60,,,0,102,102,102,1
,,,,z,3.43667,,,,,,houses/images/145.jpg,houses/images/18.jpg,104,GZ,001,2020-11-21_15h16.11.822,test2,2020.2.5,Win32,60,,,0,103,103,103,1
,,,,m,2.649525,,,,,,houses/images/46.jpg,houses/images/211.jpg,105,GZ,001,2020-11-21_15h16.11.822,test2,2020.2.5,Win32,60,,,0,104,104,104,1
,,,,m,1.38535,,,,,,houses/images/47.jpg,houses/images/282.jpg,106,GZ,001,2020-11-21_15h16.11.822,test2,2020.2.5,Win32,60,,,0,105,105,105,1
,,,,m,2.243715,,,,,,houses/images/48.jpg,houses/images/145.jpg,107,GZ,001,2020-11-21_15h16.11.822,test2,2020.2.5,Win32,60,,,0,106,106,106,1
,,,,m,2.33035,,,,,,houses/images/49.jpg,houses/images/135.jpg,108,GZ,001,2020-11-21_15h16.11.822,test2,2020.2.5,Win32,60,,,0,107,107,107,1
,,,,m,5.066085,,,,,,houses/images/5.jpg,houses/images/59.jpg,109,GZ,001,2020-11-21_15h16.11.822,test2,2020.2.5,Win32,60,,,0,108,108,108,1
,,,,z,1.222745,,,,,,houses/images/50.jpg,houses/images/164.jpg,110,GZ,001,2020-11-21_15h16.11.822,test2,2020.2.5,Win32,60,,,0,109,109,109,1
,,,,m,1.85604,,,,,,houses/images/51.jpg,houses/images/42.jpg,111,GZ,001,2020-11-21_15h16.11.822,test2,2020.2.5,Win32,60,,,0,110,110,110,1
,,,,m,0.99319,,,,,,houses/images/52.jpg,houses/images/32.jpg,112,GZ,001,2020-11-21_15h16.11.822,test2,2020.2.5,Win32,60,,,0,111,111,111,1
,,,,z,3.694035,,,,,,houses/images/53.jpg,houses/images/357.jpg,113,GZ,001,2020-11-21_15h16.11.822,test2,2020.2.5,Win32,60,,,0,112,112,112,1
,,,,z,2.874065,,,,,,houses/images/54.jpg,houses/images/305.jpg,114,GZ,001,2020-11-21_15h16.11.822,test2,2020.2.5,Win32,60,,,0,113,113,113,1
,,,,m,1.964665,,,,,,houses/images/55.jpg,houses/images/352.jpg,115,GZ,001,2020-11-21_15h16.11.822,test2,2020.2.5,Win32,60,,,0,114,114,114,1
,,,,z,1.20403,,,,,,houses/images/56.jpg,houses/images/273.jpg,116,GZ,001,2020-11-21_15h16.11.822,test2,2020.2.5,Win32,60,,,0,115,115,115,1
,,,,z,1.77151,,,,,,houses/images/57.jpg,houses/images/143.jpg,117,GZ,001,2020-11-21_15h16.11.822,test2,2020.2.5,Win32,60,,,0,116,116,116,1
,,,,m,1.28266,,,,,,houses/images/58.jpg,houses/images/95.jpg,118,GZ,001,2020-11-21_15h16.11.822,test2,2020.2.5,Win32,60,,,0,117,117,117,1
,,,,z,1.100405,,,,,,houses/images/59.jpg,houses/images/244.jpg,119,GZ,001,2020-11-21_15h16.11.822,test2,2020.2.5,Win32,60,,,0,118,118,118,1
,,,,z,1.94972,,,,,,houses/images/6.jpg,houses/images/202.jpg,120,GZ,001,2020-11-21_15h16.11.822,test2,2020.2.5,Win32,60,,,0,119,119,119,1
,,,,m,1.53299,,,,,,houses/images/60.jpg,houses/images/203.jpg,121,GZ,001,2020-11-21_15h16.11.822,test2,2020.2.5,Win32,60,,,0,120,120,120,1
,,,,z,1.26586,,,,,,houses/images/61.jpg,houses/images/123.jpg,122,GZ,001,2020-11-21_15h16.11.822,test2,2020.2.5,Win32,60,,,0,121,121,121,1
,,,,m,2.43153,,,,,,houses/images/62.jpg,houses/images/353.jpg,123,GZ,001,2020-11-21_15h16.11.822,test2,2020.2.5,Win32,60,,,0,122,122,122,1
,,,,m,7.22228,,,,,,houses/images/63.jpg,houses/images/281.jpg,124,GZ,001,2020-11-21_15h16.11.822,test2,2020.2.5,Win32,60,,,0,123,123,123,1
,,,,m,2.29844,,,,,,houses/images/64.jpg,houses/images/280.jpg,125,GZ,001,2020-11-21_15h16.11.822,test2,2020.2.5,Win32,60,,,0,124,124,124,1
,,,,m,2.16601,,,,,,houses/images/65.jpg,houses/images/309.jpg,126,GZ,001,2020-11-21_15h16.11.822,test2,2020.2.5,Win32,60,,,0,125,125,125,1
,,,,m,1.925215,,,,,,houses/images/66.jpg,houses/images/302.jpg,127,GZ,001,2020-11-21_15h16.11.822,test2,2020.2.5,Win32,60,,,0,126,126,126,1
,,,,z,2.427515,,,,,,houses/images/67.jpg,houses/images/300.jpg,128,GZ,001,2020-11-21_15h16.11.822,test2,2020.2.5,Win32,60,,,0,127,127,127,1
,,,,m,0.947715,,,,,,houses/images/68.jpg,houses/images/328.jpg,129,GZ,001,2020-11-21_15h16.11.822,test2,2020.2.5,Win32,60,,,0,128,128,128,1
,,,,z,7.756975,,,,,,houses/images/69.jpg,houses/images/114.jpg,130,GZ,001,2020-11-21_15h16.11.822,test2,2020.2.5,Win32,60,,,0,129,129,129,1
,,,,m,1.71812,,,,,,houses/images/7.jpg,houses/images/31.jpg,131,GZ,001,2020-11-21_15h16.11.822,test2,2020.2.5,Win32,60,,,0,130,130,130,1
,,,,z,2.33587,,,,,,houses/images/70.jpg,houses/images/54.jpg,132,GZ,001,2020-11-21_15h16.11.822,test2,2020.2.5,Win32,60,,,0,131,131,131,1
,,,,m,1.299605,,,,,,houses/images/71.jpg,houses/images/293.jpg,133,GZ,001,2020-11-21_15h16.11.822,test2,2020.2.5,Win32,60,,,0,132,132,132,1
,,,,m,1.2234,,,,,,houses/images/72.jpg,houses/images/37.jpg,134,GZ,001,2020-11-21_15h16.11.822,test2,2020.2.5,Win32,60,,,0,133,133,133,1
,,,,z,3.0509,,,,,,houses/images/73.jpg,houses/images/230.jpg,135,GZ,001,2020-11-21_15h16.11.822,test2,2020.2.5,Win32,60,,,0,134,134,134,1
,,,,z,2.42754,,,,,,houses/images/74.jpg,houses/images/88.jpg,136,GZ,001,2020-11-21_15h16.11.822,test2,2020.2.5,Win32,60,,,0,135,135,135,1
,,,,m,1.73213,,,,,,houses/images/75.jpg,houses/images/161.jpg,137,GZ,001,2020-11-21_15h16.11.822,test2,2020.2.5,Win32,60,,,0,136,136,136,1
,,,,z,5.26075,,,,,,houses/images/76.jpg,houses/images/354.jpg,138,GZ,001,2020-11-21_15h16.11.822,test2,2020.2.5,Win32,60,,,0,137,137,137,1
,,,,m,2.35879,,,,,,houses/images/77.jpg,houses/images/251.jpg,139,GZ,001,2020-11-21_15h16.11.822,test2,2020.2.5,Win32,60,,,0,138,138,138,1
,,,,z,1.18534,,,,,,houses/images/78.jpg,houses/images/143.jpg,140,GZ,001,2020-11-21_15h16.11.822,test2,2020.2.5,Win32,60,,,0,139,139,139,1
,,,,z,4.043985,,,,,,houses/images/79.jpg,houses/images/335.jpg,141,GZ,001,2020-11-21_15h16.11.822,test2,2020.2.5,Win32,60,,,0,140,140,140,1
,,,,m,3.466215,,,,,,houses/images/8.jpg,houses/images/231.jpg,142,GZ,001,2020-11-21_15h16.11.822,test2,2020.2.5,Win32,60,,,0,141,141,141,1
,,,,z,2.270705,,,,,,houses/images/80.jpg,houses/images/69.jpg,143,GZ,001,2020-11-21_15h16.11.822,test2,2020.2.5,Win32,60,,,0,142,142,142,1
,,,,m,2.59153,,,,,,houses/images/81.jpg,houses/images/92.jpg,144,GZ,001,2020-11-21_15h16.11.822,test2,2020.2.5,Win32,60,,,0,143,143,143,1
,,,,z,1.335255,,,,,,houses/images/82.jpg,houses/images/221.jpg,145,GZ,001,2020-11-21_15h16.11.822,test2,2020.2.5,Win32,60,,,0,144,144,144,1
,,,,z,2.570095,,,,,,houses/images/83.jpg,houses/images/196.jpg,146,GZ,001,2020-11-21_15h16.11.822,test2,2020.2.5,Win32,60,,,0,145,145,145,1
,,,,z,1.350215,,,,,,houses/images/84.jpg,houses/images/53.jpg,147,GZ,001,2020-11-21_15h16.11.822,test2,2020.2.5,Win32,60,,,0,146,146,146,1
,,,,m,1.45684,,,,,,houses/images/85.jpg,houses/images/166.jpg,148,GZ,001,2020-11-21_15h16.11.822,test2,2020.2.5,Win32,60,,,0,147,147,147,1
,,,,z,2.522655,,,,,,houses/images/86.jpg,houses/images/266.jpg,149,GZ,001,2020-11-21_15h16.11.822,test2,2020.2.5,Win32,60,,,0,148,148,148,1
,,,,m,3.449625,,,,,,houses/images/87.jpg,houses/images/355.jpg,150,GZ,001,2020-11-21_15h16.11.822,test2,2020.2.5,Win32,60,,,0,149,149,149,1
,,,,m,2.98287,,,,,,houses/images/88.jpg,houses/images/206.jpg,151,GZ,001,2020-11-21_15h16.11.822,test2,2020.2.5,Win32,60,,,0,150,150,150,1
,,,,z,4.93927,,,,,,houses/images/89.jpg,houses/images/241.jpg,152,GZ,001,2020-11-21_15h16.11.822,test2,2020.2.5,Win32,60,,,0,151,151,151,1
,,,,m,3.448465,,,,,,houses/images/9.jpg,houses/images/147.jpg,153,GZ,001,2020-11-21_15h16.11.822,test2,2020.2.5,Win32,60,,,0,152,152,152,1
,,,,m,8.73985,,,,,,houses/images/90.jpg,houses/images/117.jpg,154,GZ,001,2020-11-21_15h16.11.822,test2,2020.2.5,Win32,60,,,0,153,153,153,1
,,,,m,1.015655,,,,,,houses/images/91.jpg,houses/images/34.jpg,155,GZ,001,2020-11-21_15h16.11.822,test2,2020.2.5,Win32,60,,,0,154,154,154,1
,,,,m,2.87198,,,,,,houses/images/92.jpg,houses/images/105.jpg,156,GZ,001,2020-11-21_15h16.11.822,test2,2020.2.5,Win32,60,,,0,155,155,155,1
,,,,z,1.465055,,,,,,houses/images/93.jpg,houses/images/249.jpg,157,GZ,001,2020-11-21_15h16.11.822,test2,2020.2.5,Win32,60,,,0,156,156,156,1
,,,,z,2.33622,,,,,,houses/images/94.jpg,houses/images/265.jpg,158,GZ,001,2020-11-21_15h16.11.822,test2,2020.2.5,Win32,60,,,0,157,157,157,1
,,,,z,1.07243,,,,,,houses/images/95.jpg,houses/images/65.jpg,159,GZ,001,2020-11-21_15h16.11.822,test2,2020.2.5,Win32,60,,,0,158,158,158,1
,,,,m,5.748805,,,,,,houses/images/96.jpg,houses/images/83.jpg,160,GZ,001,2020-11-21_15h16.11.822,test2,2020.2.5,Win32,60,,,0,159,159,159,1
,,,,z,6.534765,,,,,,houses/images/97.jpg,houses/images/165.jpg,161,GZ,001,2020-11-21_15h16.11.822,test2,2020.2.5,Win32,60,,,0,160,160,160,1
,,,,m,2.08259,,,,,,houses/images/98.jpg,houses/images/280.jpg,162,GZ,001,2020-11-21_15h16.11.822,test2,2020.2.5,Win32,60,,,0,161,161,161,1
,,,,m,3.69086,,,,,,houses/images/199.jpg,houses/images/278.jpg,163,GZ,001,2020-11-21_15h16.11.822,test2,2020.2.5,Win32,60,,,0,162,162,162,1
,,,,m,1.714635,,,,,,houses/images/0.jpg,houses/images/297.jpg,164,GZ,001,2020-11-21_15h16.11.822,test2,2020.2.5,Win32,60,,,0,163,163,163,1
,,,,m,2.248255,,,,,,houses/images/1.jpg,houses/images/225.jpg,165,GZ,001,2020-11-21_15h16.11.822,test2,2020.2.5,Win32,60,,,0,164,164,164,1
,,,,m,2.906555,,,,,,houses/images/10.jpg,houses/images/41.jpg,166,GZ,001,2020-11-21_15h16.11.822,test2,2020.2.5,Win32,60,,,0,165,165,165,1
,,,,m,3.532225,,,,,,houses/images/100.jpg,houses/images/19.jpg,167,GZ,001,2020-11-21_15h16.11.822,test2,2020.2.5,Win32,60,,,0,166,166,166,1
,,,,m,2.388435,,,,,,houses/images/101.jpg,houses/images/189.jpg,168,GZ,001,2020-11-21_15h16.11.822,test2,2020.2.5,Win32,60,,,0,167,167,167,1
,,,,m,1.34956,,,,,,houses/images/102.jpg,houses/images/141.jpg,169,GZ,001,2020-11-21_15h16.11.822,test2,2020.2.5,Win32,60,,,0,168,168,168,1
,,,,m,1.403745,,,,,,houses/images/103.jpg,houses/images/212.jpg,170,GZ,001,2020-11-21_15h16.11.822,test2,2020.2.5,Win32,60,,,0,169,169,169,1
,,,,z,2.099565,,,,,,houses/images/104.jpg,houses/images/134.jpg,171,GZ,001,2020-11-21_15h16.11.822,test2,2020.2.5,Win32,60,,,0,170,170,170,1
,,,,m,5.265205,,,,,,houses/images/105.jpg,houses/images/13.jpg,172,GZ,001,2020-11-21_15h16.11.822,test2,2020.2.5,Win32,60,,,0,171,171,171,1
,,,,m,1.40186,,,,,,houses/images/106.jpg,houses/images/258.jpg,173,GZ,001,2020-11-21_15h16.11.822,test2,2020.2.5,Win32,60,,,0,172,172,172,1
,,,,z,1.953295,,,,,,houses/images/107.jpg,houses/images/14.jpg,174,GZ,001,2020-11-21_15h16.11.822,test2,2020.2.5,Win32,60,,,0,173,173,173,1
,,,,m,2.20323,,,,,,houses/images/108.jpg,houses/images/9.jpg,175,GZ,001,2020-11-21_15h16.11.822,test2,2020.2.5,Win32,60,,,0,174,174,174,1
,,,,m,3.169725,,,,,,houses/images/109.jpg,houses/images/106.jpg,176,GZ,001,2020-11-21_15h16.11.822,test2,2020.2.5,Win32,60,,,0,175,175,175,1
,,,,m,2.265425,,,,,,houses/images/11.jpg,houses/images/268.jpg,177,GZ,001,2020-11-21_15h16.11.822,test2,2020.2.5,Win32,60,,,0,176,176,176,1
,,,,m,1.899505,,,,,,houses/images/210.jpg,houses/images/330.jpg,178,GZ,001,2020-11-21_15h16.11.822,test2,2020.2.5,Win32,60,,,0,177,177,177,1
,,,,z,4.218355,,,,,,houses/images/111.jpg,houses/images/343.jpg,179,GZ,001,2020-11-21_15h16.11.822,test2,2020.2.5,Win32,60,,,0,178,178,178,1
,,,,m,2.08789,,,,,,houses/images/112.jpg,houses/images/225.jpg,180,GZ,001,2020-11-21_15h16.11.822,test2,2020.2.5,Win32,60,,,0,179,179,179,1
,,,,m,1.05452,,,,,,houses/images/113.jpg,houses/images/174.jpg,181,GZ,001,2020-11-21_15h16.11.822,test2,2020.2.5,Win32,60,,,0,180,180,180,1
,,,,m,2.453705,,,,,,houses/images/114.jpg,houses/images/25.jpg,182,GZ,001,2020-11-21_15h16.11.822,test2,2020.2.5,Win32,60,,,0,181,181,181,1
,,,,m,4.699535,,,,,,houses/images/115.jpg,houses/images/100.jpg,183,GZ,001,2020-11-21_15h16.11.822,test2,2020.2.5,Win32,60,,,0,182,182,182,1
,,,,z,1.74918,,,,,,houses/images/116.jpg,houses/images/48.jpg,184,GZ,001,2020-11-21_15h16.11.822,test2,2020.2.5,Win32,60,,,0,183,183,183,1
,,,,m,2.53239,,,,,,houses/images/117.jpg,houses/images/296.jpg,185,GZ,001,2020-11-21_15h16.11.822,test2,2020.2.5,Win32,60,,,0,184,184,184,1
,,,,m,1.598155,,,,,,houses/images/118.jpg,houses/images/15.jpg,186,GZ,001,2020-11-21_15h16.11.822,test2,2020.2.5,Win32,60,,,0,185,185,185,1
,,,,m,1.12274,,,,,,houses/images/119.jpg,houses/images/252.jpg,187,GZ,001,2020-11-21_15h16.11.822,test2,2020.2.5,Win32,60,,,0,186,186,186,1
,,,,m,3.704775,,,,,,houses/images/12.jpg,houses/images/290.jpg,188,GZ,001,2020-11-21_15h16.11.822,test2,2020.2.5,Win32,60,,,0,187,187,187,1
,,,,z,1.23813,,,,,,houses/images/120.jpg,houses/images/236.jpg,189,GZ,001,2020-11-21_15h16.11.822,test2,2020.2.5,Win32,60,,,0,188,188,188,1
,,,,m,5.07901,,,,,,houses/images/121.jpg,houses/images/260.jpg,190,GZ,001,2020-11-21_15h16.11.822,test2,2020.2.5,Win32,60,,,0,189,189,189,1
,,,,z,5.925495,,,,,,houses/images/122.jpg,houses/images/56.jpg,191,GZ,001,2020-11-21_15h16.11.822,test2,2020.2.5,Win32,60,,,0,190,190,190,1
,,,,z,3.549725,,,,,,houses/images/123.jpg,houses/images/336.jpg,192,GZ,001,2020-11-21_15h16.11.822,test2,2020.2.5,Win32,60,,,0,191,191,191,1
,,,,z,2.2486,,,,,,houses/images/124.jpg,houses/images/39.jpg,193,GZ,001,2020-11-21_15h16.11.822,test2,2020.2.5,Win32,60,,,0,192,192,192,1
,,,,z,3.18933,,,,,,houses/images/225.jpg,houses/images/302.jpg,194,GZ,001,2020-11-21_15h16.11.822,test2,2020.2.5,Win32,60,,,0,193,193,193,1
,,,,z,3.788145,,,,,,houses/images/226.jpg,houses/images/207.jpg,195,GZ,001,2020-11-21_15h16.11.822,test2,2020.2.5,Win32,60,,,0,194,194,194,1
,,,,z,1.43767,,,,,,houses/images/127.jpg,houses/images/348.jpg,196,GZ,001,2020-11-21_15h16.11.822,test2,2020.2.5,Win32,60,,,0,195,195,195,1
,,,,z,4.599445,,,,,,houses/images/128.jpg,houses/images/151.jpg,197,GZ,001,2020-11-21_15h16.11.822,test2,2020.2.5,Win32,60,,,0,196,196,196,1
,,,,z,3.508675,,,,,,houses/images/129.jpg,houses/images/315.jpg,198,GZ,001,2020-11-21_15h16.11.822,test2,2020.2.5,Win32,60,,,0,197,197,197,1
,,,,m,1.81813,,,,,,houses/images/13.jpg,houses/images/63.jpg,199,GZ,001,2020-11-21_15h16.11.822,test2,2020.2.5,Win32,60,,,0,198,198,198,1
,,,,m,6.398895,,,,,,houses/images/307.jpg,houses/images/172.jpg,200,GZ,001,2020-11-21_15h16.11.822,test2,2020.2.5,Win32,60,,,0,199,199,199,1
