key_resp.keys,key_resp.rt,key_resp_3.keys,key_resp_3.rt,key_resp_2.keys,key_resp_2.rt,trials.thisRepN,trials.thisTrialN,trials.thisN,trials.thisIndex,trials.ran,image_left,image_right,trial_num,participant,session,date,expName,psychopyVersion,OS,frameRate,key_resp_4.keys,key_resp_4.rt,trials_2.thisRepN,trials_2.thisTrialN,trials_2.thisN,trials_2.thisIndex,trials_2.ran
space,1.66537,space,11.78558,z,3.761415,0,0,0,0,1,houses/images/0.jpg,houses/images/349.jpg,1,kevin,001,2020-11-21_16h46.09.101,test2,2020.2.5,Win32,60,,,,,,,
,,,,z,1.655395,0,1,1,1,1,houses/images/1.jpg,houses/images/194.jpg,2,kevin,001,2020-11-21_16h46.09.101,test2,2020.2.5,Win32,60,,,,,,,
,,,,m,1.504485,0,2,2,2,1,houses/images/10.jpg,houses/images/159.jpg,3,kevin,001,2020-11-21_16h46.09.101,test2,2020.2.5,Win32,60,,,,,,,
,,,,z,2.26417,0,3,3,3,1,houses/images/100.jpg,houses/images/42.jpg,4,kevin,001,2020-11-21_16h46.09.101,test2,2020.2.5,Win32,60,,,,,,,
,,,,z,1.78963,0,4,4,4,1,houses/images/101.jpg,houses/images/240.jpg,5,kevin,001,2020-11-21_16h46.09.101,test2,2020.2.5,Win32,60,,,,,,,
,,,,m,1.225,0,5,5,5,1,houses/images/102.jpg,houses/images/201.jpg,6,kevin,001,2020-11-21_16h46.09.101,test2,2020.2.5,Win32,60,,,,,,,
,,,,z,1.43105,0,6,6,6,1,houses/images/103.jpg,houses/images/223.jpg,7,kevin,001,2020-11-21_16h46.09.101,test2,2020.2.5,Win32,60,,,,,,,
,,,,z,4.20424,0,7,7,7,1,houses/images/104.jpg,houses/images/46.jpg,8,kevin,001,2020-11-21_16h46.09.101,test2,2020.2.5,Win32,60,,,,,,,
,,,,m,1.600385,0,8,8,8,1,houses/images/105.jpg,houses/images/109.jpg,9,kevin,001,2020-11-21_16h46.09.101,test2,2020.2.5,Win32,60,,,,,,,
,,,,z,1.287455,0,9,9,9,1,houses/images/106.jpg,houses/images/12.jpg,10,kevin,001,2020-11-21_16h46.09.101,test2,2020.2.5,Win32,60,,,,,,,
,,,,z,2.3907,0,10,10,10,1,houses/images/107.jpg,houses/images/358.jpg,11,kevin,001,2020-11-21_16h46.09.101,test2,2020.2.5,Win32,60,,,,,,,
,,,,z,2.114075,0,11,11,11,1,houses/images/108.jpg,houses/images/197.jpg,12,kevin,001,2020-11-21_16h46.09.101,test2,2020.2.5,Win32,60,,,,,,,
,,,,z,1.722275,0,12,12,12,1,houses/images/109.jpg,houses/images/133.jpg,13,kevin,001,2020-11-21_16h46.09.101,test2,2020.2.5,Win32,60,,,,,,,
,,,,z,1.629515,0,13,13,13,1,houses/images/11.jpg,houses/images/286.jpg,14,kevin,001,2020-11-21_16h46.09.101,test2,2020.2.5,Win32,60,,,,,,,
,,,,m,1.266085,0,14,14,14,1,houses/images/210.jpg,houses/images/33.jpg,15,kevin,001,2020-11-21_16h46.09.101,test2,2020.2.5,Win32,60,,,,,,,
,,,,m,2.56794,0,15,15,15,1,houses/images/111.jpg,houses/images/156.jpg,16,kevin,001,2020-11-21_16h46.09.101,test2,2020.2.5,Win32,60,,,,,,,
,,,,z,1.335875,0,16,16,16,1,houses/images/112.jpg,houses/images/128.jpg,17,kevin,001,2020-11-21_16h46.09.101,test2,2020.2.5,Win32,60,,,,,,,
,,,,z,3.517985,0,17,17,17,1,houses/images/113.jpg,houses/images/306.jpg,18,kevin,001,2020-11-21_16h46.09.101,test2,2020.2.5,Win32,60,,,,,,,
,,,,m,2.047365,0,18,18,18,1,houses/images/114.jpg,houses/images/272.jpg,19,kevin,001,2020-11-21_16h46.09.101,test2,2020.2.5,Win32,60,,,,,,,
,,,,z,3.139,0,19,19,19,1,houses/images/115.jpg,houses/images/112.jpg,20,kevin,001,2020-11-21_16h46.09.101,test2,2020.2.5,Win32,60,,,,,,,
,,,,z,6.643425,0,20,20,20,1,houses/images/116.jpg,houses/images/101.jpg,21,kevin,001,2020-11-21_16h46.09.101,test2,2020.2.5,Win32,60,,,,,,,
,,,,m,1.74594,0,21,21,21,1,houses/images/117.jpg,houses/images/298.jpg,22,kevin,001,2020-11-21_16h46.09.101,test2,2020.2.5,Win32,60,,,,,,,
,,,,m,3.692615,0,22,22,22,1,houses/images/118.jpg,houses/images/80.jpg,23,kevin,001,2020-11-21_16h46.09.101,test2,2020.2.5,Win32,60,,,,,,,
,,,,m,2.7095,0,23,23,23,1,houses/images/119.jpg,houses/images/329.jpg,24,kevin,001,2020-11-21_16h46.09.101,test2,2020.2.5,Win32,60,,,,,,,
,,,,z,2.04648,0,24,24,24,1,houses/images/12.jpg,houses/images/320.jpg,25,kevin,001,2020-11-21_16h46.09.101,test2,2020.2.5,Win32,60,,,,,,,
,,,,z,1.679655,0,25,25,25,1,houses/images/120.jpg,houses/images/24.jpg,26,kevin,001,2020-11-21_16h46.09.101,test2,2020.2.5,Win32,60,,,,,,,
,,,,z,2.723915,0,26,26,26,1,houses/images/121.jpg,houses/images/341.jpg,27,kevin,001,2020-11-21_16h46.09.101,test2,2020.2.5,Win32,60,,,,,,,
,,,,m,1.99287,0,27,27,27,1,houses/images/122.jpg,houses/images/38.jpg,28,kevin,001,2020-11-21_16h46.09.101,test2,2020.2.5,Win32,60,,,,,,,
,,,,z,3.604815,0,28,28,28,1,houses/images/123.jpg,houses/images/98.jpg,29,kevin,001,2020-11-21_16h46.09.101,test2,2020.2.5,Win32,60,,,,,,,
,,,,z,1.73566,0,29,29,29,1,houses/images/124.jpg,houses/images/213.jpg,30,kevin,001,2020-11-21_16h46.09.101,test2,2020.2.5,Win32,60,,,,,,,
,,,,z,1.190965,0,30,30,30,1,houses/images/225.jpg,houses/images/208.jpg,31,kevin,001,2020-11-21_16h46.09.101,test2,2020.2.5,Win32,60,,,,,,,
,,,,z,2.548915,0,31,31,31,1,houses/images/226.jpg,houses/images/210.jpg,32,kevin,001,2020-11-21_16h46.09.101,test2,2020.2.5,Win32,60,,,,,,,
,,,,m,1.8744,0,32,32,32,1,houses/images/127.jpg,houses/images/90.jpg,33,kevin,001,2020-11-21_16h46.09.101,test2,2020.2.5,Win32,60,,,,,,,
,,,,z,1.506195,0,33,33,33,1,houses/images/128.jpg,houses/images/113.jpg,34,kevin,001,2020-11-21_16h46.09.101,test2,2020.2.5,Win32,60,,,,,,,
,,,,m,3.69109,0,34,34,34,1,houses/images/129.jpg,houses/images/232.jpg,35,kevin,001,2020-11-21_16h46.09.101,test2,2020.2.5,Win32,60,,,,,,,
,,,,m,2.935015,0,35,35,35,1,houses/images/13.jpg,houses/images/359.jpg,36,kevin,001,2020-11-21_16h46.09.101,test2,2020.2.5,Win32,60,,,,,,,
,,,,m,1.552715,0,36,36,36,1,houses/images/130.jpg,houses/images/187.jpg,37,kevin,001,2020-11-21_16h46.09.101,test2,2020.2.5,Win32,60,,,,,,,
,,,,z,2.03691,0,37,37,37,1,houses/images/131.jpg,houses/images/275.jpg,38,kevin,001,2020-11-21_16h46.09.101,test2,2020.2.5,Win32,60,,,,,,,
,,,,z,1.237925,0,38,38,38,1,houses/images/132.jpg,houses/images/162.jpg,39,kevin,001,2020-11-21_16h46.09.101,test2,2020.2.5,Win32,60,,,,,,,
,,,,m,3.245015,0,39,39,39,1,houses/images/133.jpg,houses/images/311.jpg,40,kevin,001,2020-11-21_16h46.09.101,test2,2020.2.5,Win32,60,,,,,,,
,,,,z,1.338325,0,40,40,40,1,houses/images/134.jpg,houses/images/277.jpg,41,kevin,001,2020-11-21_16h46.09.101,test2,2020.2.5,Win32,60,,,,,,,
,,,,z,1.31582,0,41,41,41,1,houses/images/135.jpg,houses/images/71.jpg,42,kevin,001,2020-11-21_16h46.09.101,test2,2020.2.5,Win32,60,,,,,,,
,,,,z,1.39411,0,42,42,42,1,houses/images/236.jpg,houses/images/72.jpg,43,kevin,001,2020-11-21_16h46.09.101,test2,2020.2.5,Win32,60,,,,,,,
,,,,z,0.891795,0,43,43,43,1,houses/images/137.jpg,houses/images/246.jpg,44,kevin,001,2020-11-21_16h46.09.101,test2,2020.2.5,Win32,60,,,,,,,
,,,,m,1.642125,0,44,44,44,1,houses/images/138.jpg,houses/images/174.jpg,45,kevin,001,2020-11-21_16h46.09.101,test2,2020.2.5,Win32,60,,,,,,,
,,,,m,1.42963,0,45,45,45,1,houses/images/239.jpg,houses/images/292.jpg,46,kevin,001,2020-11-21_16h46.09.101,test2,2020.2.5,Win32,60,,,,,,,
,,,,m,1.646045,0,46,46,46,1,houses/images/14.jpg,houses/images/194.jpg,47,kevin,001,2020-11-21_16h46.09.101,test2,2020.2.5,Win32,60,,,,,,,
,,,,m,1.228305,0,47,47,47,1,houses/images/240.jpg,houses/images/180.jpg,48,kevin,001,2020-11-21_16h46.09.101,test2,2020.2.5,Win32,60,,,,,,,
,,,,z,1.476645,0,48,48,48,1,houses/images/141.jpg,houses/images/262.jpg,49,kevin,001,2020-11-21_16h46.09.101,test2,2020.2.5,Win32,60,,,,,,,
,,,,z,1.55182,0,49,49,49,1,houses/images/42.jpg,houses/images/118.jpg,50,kevin,001,2020-11-21_16h46.09.101,test2,2020.2.5,Win32,60,,,,,,,
,,,,m,1.06597,0,50,50,50,1,houses/images/143.jpg,houses/images/316.jpg,51,kevin,001,2020-11-21_16h46.09.101,test2,2020.2.5,Win32,60,,,,,,,
,,,,m,1.363485,0,51,51,51,1,houses/images/144.jpg,houses/images/29.jpg,52,kevin,001,2020-11-21_16h46.09.101,test2,2020.2.5,Win32,60,,,,,,,
,,,,z,1.515435,0,52,52,52,1,houses/images/145.jpg,houses/images/146.jpg,53,kevin,001,2020-11-21_16h46.09.101,test2,2020.2.5,Win32,60,,,,,,,
,,,,z,1.285905,0,53,53,53,1,houses/images/146.jpg,houses/images/342.jpg,54,kevin,001,2020-11-21_16h46.09.101,test2,2020.2.5,Win32,60,,,,,,,
,,,,m,0.92024,0,54,54,54,1,houses/images/147.jpg,houses/images/120.jpg,55,kevin,001,2020-11-21_16h46.09.101,test2,2020.2.5,Win32,60,,,,,,,
,,,,m,0.878955,0,55,55,55,1,houses/images/148.jpg,houses/images/204.jpg,56,kevin,001,2020-11-21_16h46.09.101,test2,2020.2.5,Win32,60,,,,,,,
,,,,m,0.76399,0,56,56,56,1,houses/images/149.jpg,houses/images/292.jpg,57,kevin,001,2020-11-21_16h46.09.101,test2,2020.2.5,Win32,60,,,,,,,
,,,,z,1.138085,0,57,57,57,1,houses/images/15.jpg,houses/images/191.jpg,58,kevin,001,2020-11-21_16h46.09.101,test2,2020.2.5,Win32,60,,,,,,,
,,,,z,1.626265,0,58,58,58,1,houses/images/150.jpg,houses/images/318.jpg,59,kevin,001,2020-11-21_16h46.09.101,test2,2020.2.5,Win32,60,,,,,,,
,,,,m,1.1258,0,59,59,59,1,houses/images/151.jpg,houses/images/255.jpg,60,kevin,001,2020-11-21_16h46.09.101,test2,2020.2.5,Win32,60,,,,,,,
,,,,z,0.82005,0,60,60,60,1,houses/images/152.jpg,houses/images/261.jpg,61,kevin,001,2020-11-21_16h46.09.101,test2,2020.2.5,Win32,60,,,,,,,
,,,,z,1.294115,0,61,61,61,1,houses/images/253.jpg,houses/images/129.jpg,62,kevin,001,2020-11-21_16h46.09.101,test2,2020.2.5,Win32,60,,,,,,,
,,,,m,2.937815,0,62,62,62,1,houses/images/154.jpg,houses/images/36.jpg,63,kevin,001,2020-11-21_16h46.09.101,test2,2020.2.5,Win32,60,,,,,,,
,,,,m,2.599685,0,63,63,63,1,houses/images/155.jpg,houses/images/210.jpg,64,kevin,001,2020-11-21_16h46.09.101,test2,2020.2.5,Win32,60,,,,,,,
,,,,m,1.391865,0,64,64,64,1,houses/images/156.jpg,houses/images/132.jpg,65,kevin,001,2020-11-21_16h46.09.101,test2,2020.2.5,Win32,60,,,,,,,
,,,,z,2.42135,0,65,65,65,1,houses/images/157.jpg,houses/images/70.jpg,66,kevin,001,2020-11-21_16h46.09.101,test2,2020.2.5,Win32,60,,,,,,,
,,,,m,1.14454,0,66,66,66,1,houses/images/158.jpg,houses/images/199.jpg,67,kevin,001,2020-11-21_16h46.09.101,test2,2020.2.5,Win32,60,,,,,,,
,,,,z,3.20589,0,67,67,67,1,houses/images/159.jpg,houses/images/226.jpg,68,kevin,001,2020-11-21_16h46.09.101,test2,2020.2.5,Win32,60,,,,,,,
,,,,z,2.45097,0,68,68,68,1,houses/images/16.jpg,houses/images/50.jpg,69,kevin,001,2020-11-21_16h46.09.101,test2,2020.2.5,Win32,60,,,,,,,
,,,,m,1.141715,0,69,69,69,1,houses/images/160.jpg,houses/images/239.jpg,70,kevin,001,2020-11-21_16h46.09.101,test2,2020.2.5,Win32,60,,,,,,,
,,,,m,1.712035,0,70,70,70,1,houses/images/161.jpg,houses/images/289.jpg,71,kevin,001,2020-11-21_16h46.09.101,test2,2020.2.5,Win32,60,,,,,,,
,,,,z,1.890005,0,71,71,71,1,houses/images/162.jpg,houses/images/325.jpg,72,kevin,001,2020-11-21_16h46.09.101,test2,2020.2.5,Win32,60,,,,,,,
,,,,z,1.369665,0,72,72,72,1,houses/images/163.jpg,houses/images/259.jpg,73,kevin,001,2020-11-21_16h46.09.101,test2,2020.2.5,Win32,60,,,,,,,
,,,,m,2.114135,0,73,73,73,1,houses/images/164.jpg,houses/images/316.jpg,74,kevin,001,2020-11-21_16h46.09.101,test2,2020.2.5,Win32,60,,,,,,,
,,,,m,2.139345,0,74,74,74,1,houses/images/165.jpg,houses/images/311.jpg,75,kevin,001,2020-11-21_16h46.09.101,test2,2020.2.5,Win32,60,,,,,,,
,,,,z,2.39861,0,75,75,75,1,houses/images/166.jpg,houses/images/246.jpg,76,kevin,001,2020-11-21_16h46.09.101,test2,2020.2.5,Win32,60,,,,,,,
,,,,z,2.745895,0,76,76,76,1,houses/images/167.jpg,houses/images/269.jpg,77,kevin,001,2020-11-21_16h46.09.101,test2,2020.2.5,Win32,60,,,,,,,
,,,,m,3.1697,0,77,77,77,1,houses/images/168.jpg,houses/images/360.jpg,78,kevin,001,2020-11-21_16h46.09.101,test2,2020.2.5,Win32,60,,,,,,,
,,,,m,2.434115,0,78,78,78,1,houses/images/169.jpg,houses/images/116.jpg,79,kevin,001,2020-11-21_16h46.09.101,test2,2020.2.5,Win32,60,,,,,,,
,,,,z,3.43087,0,79,79,79,1,houses/images/17.jpg,houses/images/245.jpg,80,kevin,001,2020-11-21_16h46.09.101,test2,2020.2.5,Win32,60,,,,,,,
,,,,m,1.433575,0,80,80,80,1,houses/images/170.jpg,houses/images/152.jpg,81,kevin,001,2020-11-21_16h46.09.101,test2,2020.2.5,Win32,60,,,,,,,
,,,,m,2.030565,0,81,81,81,1,houses/images/171.jpg,houses/images/77.jpg,82,kevin,001,2020-11-21_16h46.09.101,test2,2020.2.5,Win32,60,,,,,,,
,,,,z,1.86518,0,82,82,82,1,houses/images/172.jpg,houses/images/154.jpg,83,kevin,001,2020-11-21_16h46.09.101,test2,2020.2.5,Win32,60,,,,,,,
,,,,z,2.644535,0,83,83,83,1,houses/images/273.jpg,houses/images/210.jpg,84,kevin,001,2020-11-21_16h46.09.101,test2,2020.2.5,Win32,60,,,,,,,
,,,,m,2.506645,0,84,84,84,1,houses/images/174.jpg,houses/images/121.jpg,85,kevin,001,2020-11-21_16h46.09.101,test2,2020.2.5,Win32,60,,,,,,,
,,,,m,4.76493,0,85,85,85,1,houses/images/175.jpg,houses/images/47.jpg,86,kevin,001,2020-11-21_16h46.09.101,test2,2020.2.5,Win32,60,,,,,,,
,,,,z,1.572455,0,86,86,86,1,houses/images/176.jpg,houses/images/328.jpg,87,kevin,001,2020-11-21_16h46.09.101,test2,2020.2.5,Win32,60,,,,,,,
,,,,z,2.53096,0,87,87,87,1,houses/images/177.jpg,houses/images/35.jpg,88,kevin,001,2020-11-21_16h46.09.101,test2,2020.2.5,Win32,60,,,,,,,
,,,,m,1.064835,0,88,88,88,1,houses/images/178.jpg,houses/images/299.jpg,89,kevin,001,2020-11-21_16h46.09.101,test2,2020.2.5,Win32,60,,,,,,,
,,,,m,3.45056,0,89,89,89,1,houses/images/179.jpg,houses/images/283.jpg,90,kevin,001,2020-11-21_16h46.09.101,test2,2020.2.5,Win32,60,,,,,,,
,,,,z,1.646655,0,90,90,90,1,houses/images/18.jpg,houses/images/182.jpg,91,kevin,001,2020-11-21_16h46.09.101,test2,2020.2.5,Win32,60,,,,,,,
,,,,z,1.74107,0,91,91,91,1,houses/images/180.jpg,houses/images/327.jpg,92,kevin,001,2020-11-21_16h46.09.101,test2,2020.2.5,Win32,60,,,,,,,
,,,,z,1.872335,0,92,92,92,1,houses/images/281.jpg,houses/images/334.jpg,93,kevin,001,2020-11-21_16h46.09.101,test2,2020.2.5,Win32,60,,,,,,,
,,,,m,1.22155,0,93,93,93,1,houses/images/182.jpg,houses/images/75.jpg,94,kevin,001,2020-11-21_16h46.09.101,test2,2020.2.5,Win32,60,,,,,,,
,,,,z,2.03713,0,94,94,94,1,houses/images/183.jpg,houses/images/137.jpg,95,kevin,001,2020-11-21_16h46.09.101,test2,2020.2.5,Win32,60,,,,,,,
,,,,m,0.95022,0,95,95,95,1,houses/images/184.jpg,houses/images/344.jpg,96,kevin,001,2020-11-21_16h46.09.101,test2,2020.2.5,Win32,60,,,,,,,
,,,,m,1.841195,0,96,96,96,1,houses/images/185.jpg,houses/images/285.jpg,97,kevin,001,2020-11-21_16h46.09.101,test2,2020.2.5,Win32,60,,,,,,,
,,,,z,1.328345,0,97,97,97,1,houses/images/186.jpg,houses/images/230.jpg,98,kevin,001,2020-11-21_16h46.09.101,test2,2020.2.5,Win32,60,,,,,,,
,,,,z,1.097845,0,98,98,98,1,houses/images/187.jpg,houses/images/3.jpg,99,kevin,001,2020-11-21_16h46.09.101,test2,2020.2.5,Win32,60,,,,,,,
,,,,z,1.931125,0,99,99,99,1,houses/images/188.jpg,houses/images/304.jpg,100,kevin,001,2020-11-21_16h46.09.101,test2,2020.2.5,Win32,60,,,,,,,
,,,,m,1.713235,0,100,100,100,1,houses/images/189.jpg,houses/images/17.jpg,101,kevin,001,2020-11-21_16h46.09.101,test2,2020.2.5,Win32,60,,,,,,,
,,,,z,1.24774,0,101,101,101,1,houses/images/19.jpg,houses/images/351.jpg,102,kevin,001,2020-11-21_16h46.09.101,test2,2020.2.5,Win32,60,,,,,,,
,,,,m,1.152335,0,102,102,102,1,houses/images/190.jpg,houses/images/307.jpg,103,kevin,001,2020-11-21_16h46.09.101,test2,2020.2.5,Win32,60,,,,,,,
,,,,z,1.61505,0,103,103,103,1,houses/images/191.jpg,houses/images/326.jpg,104,kevin,001,2020-11-21_16h46.09.101,test2,2020.2.5,Win32,60,,,,,,,
,,,,z,1.06,0,104,104,104,1,houses/images/292.jpg,houses/images/240.jpg,105,kevin,001,2020-11-21_16h46.09.101,test2,2020.2.5,Win32,60,,,,,,,
,,,,z,1.436205,0,105,105,105,1,houses/images/193.jpg,houses/images/243.jpg,106,kevin,001,2020-11-21_16h46.09.101,test2,2020.2.5,Win32,60,,,,,,,
,,,,z,1.19179,0,106,106,106,1,houses/images/194.jpg,houses/images/291.jpg,107,kevin,001,2020-11-21_16h46.09.101,test2,2020.2.5,Win32,60,,,,,,,
,,,,z,0.822705,0,107,107,107,1,houses/images/195.jpg,houses/images/361.jpg,108,kevin,001,2020-11-21_16h46.09.101,test2,2020.2.5,Win32,60,,,,,,,
,,,,m,0.934275,0,108,108,108,1,houses/images/196.jpg,houses/images/30.jpg,109,kevin,001,2020-11-21_16h46.09.101,test2,2020.2.5,Win32,60,,,,,,,
,,,,z,1.741655,0,109,109,109,1,houses/images/197.jpg,houses/images/22.jpg,110,kevin,001,2020-11-21_16h46.09.101,test2,2020.2.5,Win32,60,,,,,,,
,,,,m,1.463385,0,110,110,110,1,houses/images/198.jpg,houses/images/250.jpg,111,kevin,001,2020-11-21_16h46.09.101,test2,2020.2.5,Win32,60,,,,,,,
,,,,z,2.02384,0,111,111,111,1,houses/images/199.jpg,houses/images/323.jpg,112,kevin,001,2020-11-21_16h46.09.101,test2,2020.2.5,Win32,60,,,,,,,
,,,,m,2.567815,0,112,112,112,1,houses/images/2.jpg,houses/images/187.jpg,113,kevin,001,2020-11-21_16h46.09.101,test2,2020.2.5,Win32,60,,,,,,,
,,,,z,2.85766,0,113,113,113,1,houses/images/20.jpg,houses/images/100.jpg,114,kevin,001,2020-11-21_16h46.09.101,test2,2020.2.5,Win32,60,,,,,,,
,,,,z,1.462325,0,114,114,114,1,houses/images/200.jpg,houses/images/238.jpg,115,kevin,001,2020-11-21_16h46.09.101,test2,2020.2.5,Win32,60,,,,,,,
,,,,z,1.51632,0,115,115,115,1,houses/images/201.jpg,houses/images/58.jpg,116,kevin,001,2020-11-21_16h46.09.101,test2,2020.2.5,Win32,60,,,,,,,
,,,,m,1.146605,0,116,116,116,1,houses/images/202.jpg,houses/images/205.jpg,117,kevin,001,2020-11-21_16h46.09.101,test2,2020.2.5,Win32,60,,,,,,,
,,,,z,1.770715,0,117,117,117,1,houses/images/203.jpg,houses/images/40.jpg,118,kevin,001,2020-11-21_16h46.09.101,test2,2020.2.5,Win32,60,,,,,,,
,,,,z,1.777505,0,118,118,118,1,houses/images/204.jpg,houses/images/64.jpg,119,kevin,001,2020-11-21_16h46.09.101,test2,2020.2.5,Win32,60,,,,,,,
,,,,z,1.51557,0,119,119,119,1,houses/images/205.jpg,houses/images/155.jpg,120,kevin,001,2020-11-21_16h46.09.101,test2,2020.2.5,Win32,60,,,,,,,
,,,,m,1.680135,0,120,120,120,1,houses/images/206.jpg,houses/images/199.jpg,121,kevin,001,2020-11-21_16h46.09.101,test2,2020.2.5,Win32,60,,,,,,,
,,,,z,1.22359,0,121,121,121,1,houses/images/207.jpg,houses/images/233.jpg,122,kevin,001,2020-11-21_16h46.09.101,test2,2020.2.5,Win32,60,,,,,,,
,,,,m,0.901065,0,122,122,122,1,houses/images/208.jpg,houses/images/8.jpg,123,kevin,001,2020-11-21_16h46.09.101,test2,2020.2.5,Win32,60,,,,,,,
,,,,z,0.95484,0,123,123,123,1,houses/images/209.jpg,houses/images/167.jpg,124,kevin,001,2020-11-21_16h46.09.101,test2,2020.2.5,Win32,60,,,,,,,
,,,,m,2.068285,0,124,124,124,1,houses/images/21.jpg,houses/images/103.jpg,125,kevin,001,2020-11-21_16h46.09.101,test2,2020.2.5,Win32,60,,,,,,,
,,,,z,1.9476,0,125,125,125,1,houses/images/210.jpg,houses/images/104.jpg,126,kevin,001,2020-11-21_16h46.09.101,test2,2020.2.5,Win32,60,,,,,,,
,,,,z,1.007525,0,126,126,126,1,houses/images/211.jpg,houses/images/327.jpg,127,kevin,001,2020-11-21_16h46.09.101,test2,2020.2.5,Win32,60,,,,,,,
,,,,z,1.41144,0,127,127,127,1,houses/images/212.jpg,houses/images/253.jpg,128,kevin,001,2020-11-21_16h46.09.101,test2,2020.2.5,Win32,60,,,,,,,
,,,,m,2.588695,0,128,128,128,1,houses/images/213.jpg,houses/images/26.jpg,129,kevin,001,2020-11-21_16h46.09.101,test2,2020.2.5,Win32,60,,,,,,,
,,,,z,1.482795,0,129,129,129,1,houses/images/214.jpg,houses/images/198.jpg,130,kevin,001,2020-11-21_16h46.09.101,test2,2020.2.5,Win32,60,,,,,,,
,,,,z,1.115195,0,130,130,130,1,houses/images/215.jpg,houses/images/4.jpg,131,kevin,001,2020-11-21_16h46.09.101,test2,2020.2.5,Win32,60,,,,,,,
,,,,z,1.087015,0,131,131,131,1,houses/images/316.jpg,houses/images/62.jpg,132,kevin,001,2020-11-21_16h46.09.101,test2,2020.2.5,Win32,60,,,,,,,
,,,,m,3.47985,0,132,132,132,1,houses/images/217.jpg,houses/images/114.jpg,133,kevin,001,2020-11-21_16h46.09.101,test2,2020.2.5,Win32,60,,,,,,,
,,,,z,2.683465,0,133,133,133,1,houses/images/318.jpg,houses/images/308.jpg,134,kevin,001,2020-11-21_16h46.09.101,test2,2020.2.5,Win32,60,,,,,,,
,,,,z,3.51293,0,134,134,134,1,houses/images/219.jpg,houses/images/254.jpg,135,kevin,001,2020-11-21_16h46.09.101,test2,2020.2.5,Win32,60,,,,,,,
,,,,z,1.375445,0,135,135,135,1,houses/images/22.jpg,houses/images/170.jpg,136,kevin,001,2020-11-21_16h46.09.101,test2,2020.2.5,Win32,60,,,,,,,
,,,,z,1.3341,0,136,136,136,1,houses/images/220.jpg,houses/images/179.jpg,137,kevin,001,2020-11-21_16h46.09.101,test2,2020.2.5,Win32,60,,,,,,,
,,,,z,1.024715,0,137,137,137,1,houses/images/221.jpg,houses/images/238.jpg,138,kevin,001,2020-11-21_16h46.09.101,test2,2020.2.5,Win32,60,,,,,,,
,,,,m,2.570725,0,138,138,138,1,houses/images/222.jpg,houses/images/256.jpg,139,kevin,001,2020-11-21_16h46.09.101,test2,2020.2.5,Win32,60,,,,,,,
,,,,z,2.319985,0,139,139,139,1,houses/images/223.jpg,houses/images/322.jpg,140,kevin,001,2020-11-21_16h46.09.101,test2,2020.2.5,Win32,60,,,,,,,
,,,,z,25.502425,0,140,140,140,1,houses/images/224.jpg,houses/images/209.jpg,141,kevin,001,2020-11-21_16h46.09.101,test2,2020.2.5,Win32,60,,,,,,,
,,,,z,0.839875,0,141,141,141,1,houses/images/225.jpg,houses/images/219.jpg,142,kevin,001,2020-11-21_16h46.09.101,test2,2020.2.5,Win32,60,,,,,,,
,,,,z,1.41831,0,142,142,142,1,houses/images/226.jpg,houses/images/79.jpg,143,kevin,001,2020-11-21_16h46.09.101,test2,2020.2.5,Win32,60,,,,,,,
,,,,z,1.323945,0,143,143,143,1,houses/images/227.jpg,houses/images/279.jpg,144,kevin,001,2020-11-21_16h46.09.101,test2,2020.2.5,Win32,60,,,,,,,
,,,,z,0.988485,0,144,144,144,1,houses/images/228.jpg,houses/images/111.jpg,145,kevin,001,2020-11-21_16h46.09.101,test2,2020.2.5,Win32,60,,,,,,,
,,,,m,1.092995,0,145,145,145,1,houses/images/229.jpg,houses/images/257.jpg,146,kevin,001,2020-11-21_16h46.09.101,test2,2020.2.5,Win32,60,,,,,,,
,,,,z,2.76975,0,146,146,146,1,houses/images/23.jpg,houses/images/318.jpg,147,kevin,001,2020-11-21_16h46.09.101,test2,2020.2.5,Win32,60,,,,,,,
,,,,m,1.207675,0,147,147,147,1,houses/images/230.jpg,houses/images/312.jpg,148,kevin,001,2020-11-21_16h46.09.101,test2,2020.2.5,Win32,60,,,,,,,
,,,,m,1.714305,0,148,148,148,1,houses/images/231.jpg,houses/images/253.jpg,149,kevin,001,2020-11-21_16h46.09.101,test2,2020.2.5,Win32,60,,,,,,,
,,,,z,1.27376,0,149,149,149,1,houses/images/232.jpg,houses/images/236.jpg,150,kevin,001,2020-11-21_16h46.09.101,test2,2020.2.5,Win32,60,,,,,,,
,,,,z,2.610365,0,150,150,150,1,houses/images/233.jpg,houses/images/66.jpg,151,kevin,001,2020-11-21_16h46.09.101,test2,2020.2.5,Win32,60,,,,,,,
,,,,m,0.72843,0,151,151,151,1,houses/images/234.jpg,houses/images/138.jpg,152,kevin,001,2020-11-21_16h46.09.101,test2,2020.2.5,Win32,60,,,,,,,
,,,,z,1.54011,0,152,152,152,1,houses/images/235.jpg,houses/images/124.jpg,153,kevin,001,2020-11-21_16h46.09.101,test2,2020.2.5,Win32,60,,,,,,,
,,,,m,1.477875,0,153,153,153,1,houses/images/236.jpg,houses/images/160.jpg,154,kevin,001,2020-11-21_16h46.09.101,test2,2020.2.5,Win32,60,,,,,,,
,,,,m,2.741985,0,154,154,154,1,houses/images/237.jpg,houses/images/314.jpg,155,kevin,001,2020-11-21_16h46.09.101,test2,2020.2.5,Win32,60,,,,,,,
,,,,z,2.15672,0,155,155,155,1,houses/images/238.jpg,houses/images/145.jpg,156,kevin,001,2020-11-21_16h46.09.101,test2,2020.2.5,Win32,60,,,,,,,
,,,,z,1.003515,0,156,156,156,1,houses/images/239.jpg,houses/images/195.jpg,157,kevin,001,2020-11-21_16h46.09.101,test2,2020.2.5,Win32,60,,,,,,,
,,,,m,0.917475,0,157,157,157,1,houses/images/24.jpg,houses/images/0.jpg,158,kevin,001,2020-11-21_16h46.09.101,test2,2020.2.5,Win32,60,,,,,,,
,,,,m,0.9101,0,158,158,158,1,houses/images/240.jpg,houses/images/81.jpg,159,kevin,001,2020-11-21_16h46.09.101,test2,2020.2.5,Win32,60,,,,,,,
,,,,z,3.8014,0,159,159,159,1,houses/images/241.jpg,houses/images/226.jpg,160,kevin,001,2020-11-21_16h46.09.101,test2,2020.2.5,Win32,60,,,,,,,
,,,,m,1.220745,0,160,160,160,1,houses/images/342.jpg,houses/images/319.jpg,161,kevin,001,2020-11-21_16h46.09.101,test2,2020.2.5,Win32,60,,,,,,,
,,,,z,1.76625,0,161,161,161,1,houses/images/243.jpg,houses/images/23.jpg,162,kevin,001,2020-11-21_16h46.09.101,test2,2020.2.5,Win32,60,,,,,,,
,,,,z,1.89048,0,162,162,162,1,houses/images/244.jpg,houses/images/146.jpg,163,kevin,001,2020-11-21_16h46.09.101,test2,2020.2.5,Win32,60,,,,,,,
,,,,z,0.969795,0,163,163,163,1,houses/images/245.jpg,houses/images/28.jpg,164,kevin,001,2020-11-21_16h46.09.101,test2,2020.2.5,Win32,60,,,,,,,
,,,,m,1.51137,0,164,164,164,1,houses/images/246.jpg,houses/images/157.jpg,165,kevin,001,2020-11-21_16h46.09.101,test2,2020.2.5,Win32,60,,,,,,,
,,,,z,0.77749,0,165,165,165,1,houses/images/247.jpg,houses/images/2.jpg,166,kevin,001,2020-11-21_16h46.09.101,test2,2020.2.5,Win32,60,,,,,,,
,,,,m,2.58352,0,166,166,166,1,houses/images/248.jpg,houses/images/87.jpg,167,kevin,001,2020-11-21_16h46.09.101,test2,2020.2.5,Win32,60,,,,,,,
,,,,m,1.946645,0,167,167,167,1,houses/images/249.jpg,houses/images/270.jpg,168,kevin,001,2020-11-21_16h46.09.101,test2,2020.2.5,Win32,60,,,,,,,
,,,,z,1.075855,0,168,168,168,1,houses/images/25.jpg,houses/images/67.jpg,169,kevin,001,2020-11-21_16h46.09.101,test2,2020.2.5,Win32,60,,,,,,,
,,,,z,1.629325,0,169,169,169,1,houses/images/250.jpg,houses/images/234.jpg,170,kevin,001,2020-11-21_16h46.09.101,test2,2020.2.5,Win32,60,,,,,,,
,,,,z,0.835765,0,170,170,170,1,houses/images/251.jpg,houses/images/16.jpg,171,kevin,001,2020-11-21_16h46.09.101,test2,2020.2.5,Win32,60,,,,,,,
,,,,m,0.91131,0,171,171,171,1,houses/images/252.jpg,houses/images/12.jpg,172,kevin,001,2020-11-21_16h46.09.101,test2,2020.2.5,Win32,60,,,,,,,
,,,,z,0.8072,0,172,172,172,1,houses/images/253.jpg,houses/images/185.jpg,173,kevin,001,2020-11-21_16h46.09.101,test2,2020.2.5,Win32,60,,,,,,,
,,,,z,1.36991,0,173,173,173,1,houses/images/254.jpg,houses/images/39.jpg,174,kevin,001,2020-11-21_16h46.09.101,test2,2020.2.5,Win32,60,,,,,,,
,,,,z,1.31772,0,174,174,174,1,houses/images/255.jpg,houses/images/237.jpg,175,kevin,001,2020-11-21_16h46.09.101,test2,2020.2.5,Win32,60,,,,,,,
,,,,z,1.550575,0,175,175,175,1,houses/images/256.jpg,houses/images/356.jpg,176,kevin,001,2020-11-21_16h46.09.101,test2,2020.2.5,Win32,60,,,,,,,
,,,,m,1.79353,0,176,176,176,1,houses/images/257.jpg,houses/images/107.jpg,177,kevin,001,2020-11-21_16h46.09.101,test2,2020.2.5,Win32,60,,,,,,,
,,,,z,5.68664,0,177,177,177,1,houses/images/258.jpg,houses/images/84.jpg,178,kevin,001,2020-11-21_16h46.09.101,test2,2020.2.5,Win32,60,,,,,,,
,,,,z,3.267195,0,178,178,178,1,houses/images/259.jpg,houses/images/119.jpg,179,kevin,001,2020-11-21_16h46.09.101,test2,2020.2.5,Win32,60,,,,,,,
,,,,z,1.43527,0,179,179,179,1,houses/images/26.jpg,houses/images/227.jpg,180,kevin,001,2020-11-21_16h46.09.101,test2,2020.2.5,Win32,60,,,,,,,
,,,,z,1.00253,0,180,180,180,1,houses/images/260.jpg,houses/images/238.jpg,181,kevin,001,2020-11-21_16h46.09.101,test2,2020.2.5,Win32,60,,,,,,,
,,,,z,0.983075,0,181,181,181,1,houses/images/261.jpg,houses/images/337.jpg,182,kevin,001,2020-11-21_16h46.09.101,test2,2020.2.5,Win32,60,,,,,,,
,,,,z,1.746325,0,182,182,182,1,houses/images/262.jpg,houses/images/214.jpg,183,kevin,001,2020-11-21_16h46.09.101,test2,2020.2.5,Win32,60,,,,,,,
,,,,m,0.853175,0,183,183,183,1,houses/images/263.jpg,houses/images/239.jpg,184,kevin,001,2020-11-21_16h46.09.101,test2,2020.2.5,Win32,60,,,,,,,
,,,,z,1.06759,0,184,184,184,1,houses/images/264.jpg,houses/images/149.jpg,185,kevin,001,2020-11-21_16h46.09.101,test2,2020.2.5,Win32,60,,,,,,,
,,,,m,1.257485,0,185,185,185,1,houses/images/265.jpg,houses/images/68.jpg,186,kevin,001,2020-11-21_16h46.09.101,test2,2020.2.5,Win32,60,,,,,,,
,,,,m,1.87259,0,186,186,186,1,houses/images/266.jpg,houses/images/271.jpg,187,kevin,001,2020-11-21_16h46.09.101,test2,2020.2.5,Win32,60,,,,,,,
,,,,m,1.2507,0,187,187,187,1,houses/images/267.jpg,houses/images/87.jpg,188,kevin,001,2020-11-21_16h46.09.101,test2,2020.2.5,Win32,60,,,,,,,
,,,,m,2.238905,0,188,188,188,1,houses/images/268.jpg,houses/images/348.jpg,189,kevin,001,2020-11-21_16h46.09.101,test2,2020.2.5,Win32,60,,,,,,,
,,,,z,1.23808,0,189,189,189,1,houses/images/269.jpg,houses/images/228.jpg,190,kevin,001,2020-11-21_16h46.09.101,test2,2020.2.5,Win32,60,,,,,,,
,,,,m,1.259945,0,190,190,190,1,houses/images/27.jpg,houses/images/317.jpg,191,kevin,001,2020-11-21_16h46.09.101,test2,2020.2.5,Win32,60,,,,,,,
,,,,z,0.86322,0,191,191,191,1,houses/images/270.jpg,houses/images/10.jpg,192,kevin,001,2020-11-21_16h46.09.101,test2,2020.2.5,Win32,60,,,,,,,
,,,,z,1.96741,0,192,192,192,1,houses/images/271.jpg,houses/images/222.jpg,193,kevin,001,2020-11-21_16h46.09.101,test2,2020.2.5,Win32,60,,,,,,,
,,,,z,1.1017,0,193,193,193,1,houses/images/272.jpg,houses/images/314.jpg,194,kevin,001,2020-11-21_16h46.09.101,test2,2020.2.5,Win32,60,,,,,,,
,,,,m,0.938325,0,194,194,194,1,houses/images/273.jpg,houses/images/28.jpg,195,kevin,001,2020-11-21_16h46.09.101,test2,2020.2.5,Win32,60,,,,,,,
,,,,z,1.726355,0,195,195,195,1,houses/images/174.jpg,houses/images/294.jpg,196,kevin,001,2020-11-21_16h46.09.101,test2,2020.2.5,Win32,60,,,,,,,
,,,,z,1.029535,0,196,196,196,1,houses/images/275.jpg,houses/images/60.jpg,197,kevin,001,2020-11-21_16h46.09.101,test2,2020.2.5,Win32,60,,,,,,,
,,,,z,2.254215,0,197,197,197,1,houses/images/276.jpg,houses/images/144.jpg,198,kevin,001,2020-11-21_16h46.09.101,test2,2020.2.5,Win32,60,,,,,,,
,,,,z,1.8153,0,198,198,198,1,houses/images/277.jpg,houses/images/168.jpg,199,kevin,001,2020-11-21_16h46.09.101,test2,2020.2.5,Win32,60,,,,,,,
,,,,m,1.24929,0,199,199,199,1,houses/images/278.jpg,houses/images/206.jpg,200,kevin,001,2020-11-21_16h46.09.101,test2,2020.2.5,Win32,60,,,,,,,
,,,,m,1.37742,,,,,,houses/images/279.jpg,houses/images/91.jpg,1,kevin,001,2020-11-21_16h46.09.101,test2,2020.2.5,Win32,60,space,109.44969,0,0,0,0,1
,,,,z,0.91471,,,,,,houses/images/28.jpg,houses/images/49.jpg,2,kevin,001,2020-11-21_16h46.09.101,test2,2020.2.5,Win32,60,,,0,1,1,1,1
,,,,z,1.198335,,,,,,houses/images/280.jpg,houses/images/163.jpg,3,kevin,001,2020-11-21_16h46.09.101,test2,2020.2.5,Win32,60,,,0,2,2,2,1
,,,,m,0.842355,,,,,,houses/images/281.jpg,houses/images/176.jpg,4,kevin,001,2020-11-21_16h46.09.101,test2,2020.2.5,Win32,60,,,0,3,3,3,1
,,,,m,1.08347,,,,,,houses/images/282.jpg,houses/images/263.jpg,5,kevin,001,2020-11-21_16h46.09.101,test2,2020.2.5,Win32,60,,,0,4,4,4,1
,,,,z,0.907895,,,,,,houses/images/283.jpg,houses/images/303.jpg,6,kevin,001,2020-11-21_16h46.09.101,test2,2020.2.5,Win32,60,,,0,5,5,5,1
,,,,m,0.97142,,,,,,houses/images/284.jpg,houses/images/184.jpg,7,kevin,001,2020-11-21_16h46.09.101,test2,2020.2.5,Win32,60,,,0,6,6,6,1
,,,,m,1.484495,,,,,,houses/images/285.jpg,houses/images/264.jpg,8,kevin,001,2020-11-21_16h46.09.101,test2,2020.2.5,Win32,60,,,0,7,7,7,1
,,,,m,1.482,,,,,,houses/images/286.jpg,houses/images/89.jpg,9,kevin,001,2020-11-21_16h46.09.101,test2,2020.2.5,Win32,60,,,0,8,8,8,1
,,,,z,0.701665,,,,,,houses/images/187.jpg,houses/images/350.jpg,10,kevin,001,2020-11-21_16h46.09.101,test2,2020.2.5,Win32,60,,,0,9,9,9,1
,,,,z,0.976415,,,,,,houses/images/288.jpg,houses/images/267.jpg,11,kevin,001,2020-11-21_16h46.09.101,test2,2020.2.5,Win32,60,,,0,10,10,10,1
,,,,m,1.296645,,,,,,houses/images/289.jpg,houses/images/332.jpg,12,kevin,001,2020-11-21_16h46.09.101,test2,2020.2.5,Win32,60,,,0,11,11,11,1
,,,,z,1.13293,,,,,,houses/images/29.jpg,houses/images/61.jpg,13,kevin,001,2020-11-21_16h46.09.101,test2,2020.2.5,Win32,60,,,0,12,12,12,1
,,,,z,1.035185,,,,,,houses/images/290.jpg,houses/images/102.jpg,14,kevin,001,2020-11-21_16h46.09.101,test2,2020.2.5,Win32,60,,,0,13,13,13,1
,,,,m,0.958085,,,,,,houses/images/291.jpg,houses/images/220.jpg,15,kevin,001,2020-11-21_16h46.09.101,test2,2020.2.5,Win32,60,,,0,14,14,14,1
,,,,z,1.04887,,,,,,houses/images/292.jpg,houses/images/121.jpg,16,kevin,001,2020-11-21_16h46.09.101,test2,2020.2.5,Win32,60,,,0,15,15,15,1
,,,,z,1.3095,,,,,,houses/images/293.jpg,houses/images/25.jpg,17,kevin,001,2020-11-21_16h46.09.101,test2,2020.2.5,Win32,60,,,0,16,16,16,1
,,,,m,1.4531,,,,,,houses/images/294.jpg,houses/images/284.jpg,18,kevin,001,2020-11-21_16h46.09.101,test2,2020.2.5,Win32,60,,,0,17,17,17,1
,,,,z,0.81634,,,,,,houses/images/295.jpg,houses/images/273.jpg,19,kevin,001,2020-11-21_16h46.09.101,test2,2020.2.5,Win32,60,,,0,18,18,18,1
,,,,z,0.76337,,,,,,houses/images/296.jpg,houses/images/122.jpg,20,kevin,001,2020-11-21_16h46.09.101,test2,2020.2.5,Win32,60,,,0,19,19,19,1
,,,,z,1.50128,,,,,,houses/images/297.jpg,houses/images/217.jpg,21,kevin,001,2020-11-21_16h46.09.101,test2,2020.2.5,Win32,60,,,0,20,20,20,1
,,,,z,1.097535,,,,,,houses/images/298.jpg,houses/images/178.jpg,22,kevin,001,2020-11-21_16h46.09.101,test2,2020.2.5,Win32,60,,,0,21,21,21,1
,,,,z,1.75441,,,,,,houses/images/299.jpg,houses/images/43.jpg,23,kevin,001,2020-11-21_16h46.09.101,test2,2020.2.5,Win32,60,,,0,22,22,22,1
,,,,m,3.012475,,,,,,houses/images/3.jpg,houses/images/229.jpg,24,kevin,001,2020-11-21_16h46.09.101,test2,2020.2.5,Win32,60,,,0,23,23,23,1
,,,,z,0.962375,,,,,,houses/images/30.jpg,houses/images/177.jpg,25,kevin,001,2020-11-21_16h46.09.101,test2,2020.2.5,Win32,60,,,0,24,24,24,1
,,,,z,0.879985,,,,,,houses/images/300.jpg,houses/images/342.jpg,26,kevin,001,2020-11-21_16h46.09.101,test2,2020.2.5,Win32,60,,,0,25,25,25,1
,,,,z,3.739875,,,,,,houses/images/201.jpg,houses/images/57.jpg,27,kevin,001,2020-11-21_16h46.09.101,test2,2020.2.5,Win32,60,,,0,26,26,26,1
,,,,z,0.93647,,,,,,houses/images/302.jpg,houses/images/186.jpg,28,kevin,001,2020-11-21_16h46.09.101,test2,2020.2.5,Win32,60,,,0,27,27,27,1
,,,,z,1.092815,,,,,,houses/images/303.jpg,houses/images/131.jpg,29,kevin,001,2020-11-21_16h46.09.101,test2,2020.2.5,Win32,60,,,0,28,28,28,1
,,,,z,1.03686,,,,,,houses/images/304.jpg,houses/images/183.jpg,30,kevin,001,2020-11-21_16h46.09.101,test2,2020.2.5,Win32,60,,,0,29,29,29,1
,,,,z,1.95188,,,,,,houses/images/305.jpg,houses/images/200.jpg,31,kevin,001,2020-11-21_16h46.09.101,test2,2020.2.5,Win32,60,,,0,30,30,30,1
,,,,m,1.212275,,,,,,houses/images/306.jpg,houses/images/94.jpg,32,kevin,001,2020-11-21_16h46.09.101,test2,2020.2.5,Win32,60,,,0,31,31,31,1
,,,,z,1.074625,,,,,,houses/images/307.jpg,houses/images/96.jpg,33,kevin,001,2020-11-21_16h46.09.101,test2,2020.2.5,Win32,60,,,0,32,32,32,1
,,,,z,1.61851,,,,,,houses/images/308.jpg,houses/images/76.jpg,34,kevin,001,2020-11-21_16h46.09.101,test2,2020.2.5,Win32,60,,,0,33,33,33,1
,,,,z,1.07945,,,,,,houses/images/309.jpg,houses/images/78.jpg,35,kevin,001,2020-11-21_16h46.09.101,test2,2020.2.5,Win32,60,,,0,34,34,34,1
,,,,z,1.55814,,,,,,houses/images/31.jpg,houses/images/76.jpg,36,kevin,001,2020-11-21_16h46.09.101,test2,2020.2.5,Win32,60,,,0,35,35,35,1
,,,,m,1.46343,,,,,,houses/images/310.jpg,houses/images/128.jpg,37,kevin,001,2020-11-21_16h46.09.101,test2,2020.2.5,Win32,60,,,0,36,36,36,1
,,,,z,1.04126,,,,,,houses/images/311.jpg,houses/images/190.jpg,38,kevin,001,2020-11-21_16h46.09.101,test2,2020.2.5,Win32,60,,,0,37,37,37,1
,,,,z,1.34363,,,,,,houses/images/312.jpg,houses/images/5.jpg,39,kevin,001,2020-11-21_16h46.09.101,test2,2020.2.5,Win32,60,,,0,38,38,38,1
,,,,m,1.138055,,,,,,houses/images/313.jpg,houses/images/188.jpg,40,kevin,001,2020-11-21_16h46.09.101,test2,2020.2.5,Win32,60,,,0,39,39,39,1
,,,,z,0.91924,,,,,,houses/images/314.jpg,houses/images/342.jpg,41,kevin,001,2020-11-21_16h46.09.101,test2,2020.2.5,Win32,60,,,0,40,40,40,1
,,,,z,1.47935,,,,,,houses/images/315.jpg,houses/images/288.jpg,42,kevin,001,2020-11-21_16h46.09.101,test2,2020.2.5,Win32,60,,,0,41,41,41,1
,,,,z,1.24937,,,,,,houses/images/316.jpg,houses/images/321.jpg,43,kevin,001,2020-11-21_16h46.09.101,test2,2020.2.5,Win32,60,,,0,42,42,42,1
,,,,z,1.37678,,,,,,houses/images/317.jpg,houses/images/82.jpg,44,kevin,001,2020-11-21_16h46.09.101,test2,2020.2.5,Win32,60,,,0,43,43,43,1
,,,,z,5.71346,,,,,,houses/images/318.jpg,houses/images/169.jpg,45,kevin,001,2020-11-21_16h46.09.101,test2,2020.2.5,Win32,60,,,0,44,44,44,1
,,,,z,0.86496,,,,,,houses/images/319.jpg,houses/images/224.jpg,46,kevin,001,2020-11-21_16h46.09.101,test2,2020.2.5,Win32,60,,,0,45,45,45,1
,,,,m,1.486605,,,,,,houses/images/32.jpg,houses/images/175.jpg,47,kevin,001,2020-11-21_16h46.09.101,test2,2020.2.5,Win32,60,,,0,46,46,46,1
,,,,z,0.891165,,,,,,houses/images/320.jpg,houses/images/247.jpg,48,kevin,001,2020-11-21_16h46.09.101,test2,2020.2.5,Win32,60,,,0,47,47,47,1
,,,,m,0.89734,,,,,,houses/images/321.jpg,houses/images/97.jpg,49,kevin,001,2020-11-21_16h46.09.101,test2,2020.2.5,Win32,60,,,0,48,48,48,1
,,,,m,2.07354,,,,,,houses/images/322.jpg,houses/images/74.jpg,50,kevin,001,2020-11-21_16h46.09.101,test2,2020.2.5,Win32,60,,,0,49,49,49,1
,,,,z,0.81241,,,,,,houses/images/323.jpg,houses/images/148.jpg,51,kevin,001,2020-11-21_16h46.09.101,test2,2020.2.5,Win32,60,,,0,50,50,50,1
,,,,m,1.46858,,,,,,houses/images/324.jpg,houses/images/313.jpg,52,kevin,001,2020-11-21_16h46.09.101,test2,2020.2.5,Win32,60,,,0,51,51,51,1
,,,,z,1.54451,,,,,,houses/images/325.jpg,houses/images/11.jpg,53,kevin,001,2020-11-21_16h46.09.101,test2,2020.2.5,Win32,60,,,0,52,52,52,1
,,,,m,1.21295,,,,,,houses/images/326.jpg,houses/images/21.jpg,54,kevin,001,2020-11-21_16h46.09.101,test2,2020.2.5,Win32,60,,,0,53,53,53,1
,,,,z,0.739045,,,,,,houses/images/327.jpg,houses/images/281.jpg,55,kevin,001,2020-11-21_16h46.09.101,test2,2020.2.5,Win32,60,,,0,54,54,54,1
,,,,z,1.53514,,,,,,houses/images/328.jpg,houses/images/172.jpg,56,kevin,001,2020-11-21_16h46.09.101,test2,2020.2.5,Win32,60,,,0,55,55,55,1
,,,,z,1.7507,,,,,,houses/images/329.jpg,houses/images/273.jpg,57,kevin,001,2020-11-21_16h46.09.101,test2,2020.2.5,Win32,60,,,0,56,56,56,1
,,,,m,3.719085,,,,,,houses/images/33.jpg,houses/images/239.jpg,58,kevin,001,2020-11-21_16h46.09.101,test2,2020.2.5,Win32,60,,,0,57,57,57,1
,,,,m,1.25867,,,,,,houses/images/330.jpg,houses/images/333.jpg,59,kevin,001,2020-11-21_16h46.09.101,test2,2020.2.5,Win32,60,,,0,58,58,58,1
,,,,z,0.790085,,,,,,houses/images/331.jpg,houses/images/361.jpg,60,kevin,001,2020-11-21_16h46.09.101,test2,2020.2.5,Win32,60,,,0,59,59,59,1
,,,,z,0.91799,,,,,,houses/images/332.jpg,houses/images/91.jpg,61,kevin,001,2020-11-21_16h46.09.101,test2,2020.2.5,Win32,60,,,0,60,60,60,1
,,,,z,1.89517,,,,,,houses/images/333.jpg,houses/images/158.jpg,62,kevin,001,2020-11-21_16h46.09.101,test2,2020.2.5,Win32,60,,,0,61,61,61,1
,,,,z,1.888285,,,,,,houses/images/334.jpg,houses/images/10.jpg,63,kevin,001,2020-11-21_16h46.09.101,test2,2020.2.5,Win32,60,,,0,62,62,62,1
,,,,z,0.98987,,,,,,houses/images/335.jpg,houses/images/331.jpg,64,kevin,001,2020-11-21_16h46.09.101,test2,2020.2.5,Win32,60,,,0,63,63,63,1
,,,,z,1.878235,,,,,,houses/images/336.jpg,houses/images/171.jpg,65,kevin,001,2020-11-21_16h46.09.101,test2,2020.2.5,Win32,60,,,0,64,64,64,1
,,,,m,2.780765,,,,,,houses/images/337.jpg,houses/images/226.jpg,66,kevin,001,2020-11-21_16h46.09.101,test2,2020.2.5,Win32,60,,,0,65,65,65,1
,,,,m,1.669005,,,,,,houses/images/238.jpg,houses/images/214.jpg,67,kevin,001,2020-11-21_16h46.09.101,test2,2020.2.5,Win32,60,,,0,66,66,66,1
,,,,z,0.862635,,,,,,houses/images/239.jpg,houses/images/130.jpg,68,kevin,001,2020-11-21_16h46.09.101,test2,2020.2.5,Win32,60,,,0,67,67,67,1
,,,,z,1.152705,,,,,,houses/images/34.jpg,houses/images/85.jpg,69,kevin,001,2020-11-21_16h46.09.101,test2,2020.2.5,Win32,60,,,0,68,68,68,1
,,,,m,1.32666,,,,,,houses/images/340.jpg,houses/images/248.jpg,70,kevin,001,2020-11-21_16h46.09.101,test2,2020.2.5,Win32,60,,,0,69,69,69,1
,,,,m,1.410185,,,,,,houses/images/341.jpg,houses/images/215.jpg,71,kevin,001,2020-11-21_16h46.09.101,test2,2020.2.5,Win32,60,,,0,70,70,70,1
,,,,z,1.82937,,,,,,houses/images/342.jpg,houses/images/155.jpg,72,kevin,001,2020-11-21_16h46.09.101,test2,2020.2.5,Win32,60,,,0,71,71,71,1
,,,,z,0.933395,,,,,,houses/images/343.jpg,houses/images/193.jpg,73,kevin,001,2020-11-21_16h46.09.101,test2,2020.2.5,Win32,60,,,0,72,72,72,1
,,,,z,1.342445,,,,,,houses/images/344.jpg,houses/images/324.jpg,74,kevin,001,2020-11-21_16h46.09.101,test2,2020.2.5,Win32,60,,,0,73,73,73,1
,,,,m,1.29277,,,,,,houses/images/345.jpg,houses/images/86.jpg,75,kevin,001,2020-11-21_16h46.09.101,test2,2020.2.5,Win32,60,,,0,74,74,74,1
,,,,z,1.51343,,,,,,houses/images/246.jpg,houses/images/295.jpg,76,kevin,001,2020-11-21_16h46.09.101,test2,2020.2.5,Win32,60,,,0,75,75,75,1
,,,,m,0.93,,,,,,houses/images/347.jpg,houses/images/292.jpg,77,kevin,001,2020-11-21_16h46.09.101,test2,2020.2.5,Win32,60,,,0,76,76,76,1
,,,,m,1.281355,,,,,,houses/images/348.jpg,houses/images/55.jpg,78,kevin,001,2020-11-21_16h46.09.101,test2,2020.2.5,Win32,60,,,0,77,77,77,1
,,,,z,1.835645,,,,,,houses/images/349.jpg,houses/images/1.jpg,79,kevin,001,2020-11-21_16h46.09.101,test2,2020.2.5,Win32,60,,,0,78,78,78,1
,,,,z,1.24894,,,,,,houses/images/35.jpg,houses/images/73.jpg,80,kevin,001,2020-11-21_16h46.09.101,test2,2020.2.5,Win32,60,,,0,79,79,79,1
,,,,m,1.18859,,,,,,houses/images/350.jpg,houses/images/44.jpg,81,kevin,001,2020-11-21_16h46.09.101,test2,2020.2.5,Win32,60,,,0,80,80,80,1
,,,,m,1.848035,,,,,,houses/images/351.jpg,houses/images/6.jpg,82,kevin,001,2020-11-21_16h46.09.101,test2,2020.2.5,Win32,60,,,0,81,81,81,1
,,,,m,2.16727,,,,,,houses/images/352.jpg,houses/images/20.jpg,83,kevin,001,2020-11-21_16h46.09.101,test2,2020.2.5,Win32,60,,,0,82,82,82,1
,,,,z,0.87653,,,,,,houses/images/353.jpg,houses/images/18.jpg,84,kevin,001,2020-11-21_16h46.09.101,test2,2020.2.5,Win32,60,,,0,83,83,83,1
,,,,m,2.182925,,,,,,houses/images/354.jpg,houses/images/347.jpg,85,kevin,001,2020-11-21_16h46.09.101,test2,2020.2.5,Win32,60,,,0,84,84,84,1
,,,,z,1.129635,,,,,,houses/images/355.jpg,houses/images/27.jpg,86,kevin,001,2020-11-21_16h46.09.101,test2,2020.2.5,Win32,60,,,0,85,85,85,1
,,,,z,2.034355,,,,,,houses/images/356.jpg,houses/images/276.jpg,87,kevin,001,2020-11-21_16h46.09.101,test2,2020.2.5,Win32,60,,,0,86,86,86,1
,,,,z,1.60033,,,,,,houses/images/357.jpg,houses/images/345.jpg,88,kevin,001,2020-11-21_16h46.09.101,test2,2020.2.5,Win32,60,,,0,87,87,87,1
,,,,m,2.35678,,,,,,houses/images/358.jpg,houses/images/235.jpg,89,kevin,001,2020-11-21_16h46.09.101,test2,2020.2.5,Win32,60,,,0,88,88,88,1
,,,,m,0.867505,,,,,,houses/images/359.jpg,houses/images/115.jpg,90,kevin,001,2020-11-21_16h46.09.101,test2,2020.2.5,Win32,60,,,0,89,89,89,1
,,,,z,1.39913,,,,,,houses/images/36.jpg,houses/images/310.jpg,91,kevin,001,2020-11-21_16h46.09.101,test2,2020.2.5,Win32,60,,,0,90,90,90,1
,,,,z,1.905545,,,,,,houses/images/360.jpg,houses/images/93.jpg,92,kevin,001,2020-11-21_16h46.09.101,test2,2020.2.5,Win32,60,,,0,91,91,91,1
,,,,m,2.823065,,,,,,houses/images/361.jpg,houses/images/212.jpg,93,kevin,001,2020-11-21_16h46.09.101,test2,2020.2.5,Win32,60,,,0,92,92,92,1
,,,,z,1.06112,,,,,,houses/images/62.jpg,houses/images/51.jpg,94,kevin,001,2020-11-21_16h46.09.101,test2,2020.2.5,Win32,60,,,0,93,93,93,1
,,,,z,0.93359,,,,,,houses/images/37.jpg,houses/images/108.jpg,95,kevin,001,2020-11-21_16h46.09.101,test2,2020.2.5,Win32,60,,,0,94,94,94,1
,,,,z,1.14877,,,,,,houses/images/38.jpg,houses/images/127.jpg,96,kevin,001,2020-11-21_16h46.09.101,test2,2020.2.5,Win32,60,,,0,95,95,95,1
,,,,z,0.962425,,,,,,houses/images/39.jpg,houses/images/52.jpg,97,kevin,001,2020-11-21_16h46.09.101,test2,2020.2.5,Win32,60,,,0,96,96,96,1
,,,,m,1.26994,,,,,,houses/images/4.jpg,houses/images/318.jpg,98,kevin,001,2020-11-21_16h46.09.101,test2,2020.2.5,Win32,60,,,0,97,97,97,1
,,,,m,0.76851,,,,,,houses/images/40.jpg,houses/images/201.jpg,99,kevin,001,2020-11-21_16h46.09.101,test2,2020.2.5,Win32,60,,,0,98,98,98,1
,,,,z,1.061605,,,,,,houses/images/41.jpg,houses/images/7.jpg,100,kevin,001,2020-11-21_16h46.09.101,test2,2020.2.5,Win32,60,,,0,99,99,99,1
,,,,z,1.6438,,,,,,houses/images/42.jpg,houses/images/340.jpg,101,kevin,001,2020-11-21_16h46.09.101,test2,2020.2.5,Win32,60,,,0,100,100,100,1
,,,,m,1.034235,,,,,,houses/images/43.jpg,houses/images/150.jpg,102,kevin,001,2020-11-21_16h46.09.101,test2,2020.2.5,Win32,60,,,0,101,101,101,1
,,,,z,1.359465,,,,,,houses/images/44.jpg,houses/images/246.jpg,103,kevin,001,2020-11-21_16h46.09.101,test2,2020.2.5,Win32,60,,,0,102,102,102,1
,,,,m,1.003455,,,,,,houses/images/145.jpg,houses/images/18.jpg,104,kevin,001,2020-11-21_16h46.09.101,test2,2020.2.5,Win32,60,,,0,103,103,103,1
,,,,m,0.79463,,,,,,houses/images/46.jpg,houses/images/211.jpg,105,kevin,001,2020-11-21_16h46.09.101,test2,2020.2.5,Win32,60,,,0,104,104,104,1
,,,,z,0.8035,,,,,,houses/images/47.jpg,houses/images/282.jpg,106,kevin,001,2020-11-21_16h46.09.101,test2,2020.2.5,Win32,60,,,0,105,105,105,1
,,,,z,1.273155,,,,,,houses/images/48.jpg,houses/images/145.jpg,107,kevin,001,2020-11-21_16h46.09.101,test2,2020.2.5,Win32,60,,,0,106,106,106,1
,,,,z,0.932985,,,,,,houses/images/49.jpg,houses/images/135.jpg,108,kevin,001,2020-11-21_16h46.09.101,test2,2020.2.5,Win32,60,,,0,107,107,107,1
,,,,m,0.936295,,,,,,houses/images/5.jpg,houses/images/59.jpg,109,kevin,001,2020-11-21_16h46.09.101,test2,2020.2.5,Win32,60,,,0,108,108,108,1
,,,,m,1.194365,,,,,,houses/images/50.jpg,houses/images/164.jpg,110,kevin,001,2020-11-21_16h46.09.101,test2,2020.2.5,Win32,60,,,0,109,109,109,1
,,,,z,2.55015,,,,,,houses/images/51.jpg,houses/images/42.jpg,111,kevin,001,2020-11-21_16h46.09.101,test2,2020.2.5,Win32,60,,,0,110,110,110,1
,,,,z,2.29989,,,,,,houses/images/52.jpg,houses/images/32.jpg,112,kevin,001,2020-11-21_16h46.09.101,test2,2020.2.5,Win32,60,,,0,111,111,111,1
,,,,z,5.527445,,,,,,houses/images/53.jpg,houses/images/357.jpg,113,kevin,001,2020-11-21_16h46.09.101,test2,2020.2.5,Win32,60,,,0,112,112,112,1
,,,,m,1.54903,,,,,,houses/images/54.jpg,houses/images/305.jpg,114,kevin,001,2020-11-21_16h46.09.101,test2,2020.2.5,Win32,60,,,0,113,113,113,1
,,,,z,1.122265,,,,,,houses/images/55.jpg,houses/images/352.jpg,115,kevin,001,2020-11-21_16h46.09.101,test2,2020.2.5,Win32,60,,,0,114,114,114,1
,,,,z,1.20312,,,,,,houses/images/56.jpg,houses/images/273.jpg,116,kevin,001,2020-11-21_16h46.09.101,test2,2020.2.5,Win32,60,,,0,115,115,115,1
,,,,m,2.40086,,,,,,houses/images/57.jpg,houses/images/143.jpg,117,kevin,001,2020-11-21_16h46.09.101,test2,2020.2.5,Win32,60,,,0,116,116,116,1
,,,,z,1.32478,,,,,,houses/images/58.jpg,houses/images/95.jpg,118,kevin,001,2020-11-21_16h46.09.101,test2,2020.2.5,Win32,60,,,0,117,117,117,1
,,,,z,1.105055,,,,,,houses/images/59.jpg,houses/images/244.jpg,119,kevin,001,2020-11-21_16h46.09.101,test2,2020.2.5,Win32,60,,,0,118,118,118,1
,,,,z,1.096405,,,,,,houses/images/6.jpg,houses/images/202.jpg,120,kevin,001,2020-11-21_16h46.09.101,test2,2020.2.5,Win32,60,,,0,119,119,119,1
,,,,z,2.39461,,,,,,houses/images/60.jpg,houses/images/203.jpg,121,kevin,001,2020-11-21_16h46.09.101,test2,2020.2.5,Win32,60,,,0,120,120,120,1
,,,,m,1.05237,,,,,,houses/images/61.jpg,houses/images/123.jpg,122,kevin,001,2020-11-21_16h46.09.101,test2,2020.2.5,Win32,60,,,0,121,121,121,1
,,,,z,1.180735,,,,,,houses/images/62.jpg,houses/images/353.jpg,123,kevin,001,2020-11-21_16h46.09.101,test2,2020.2.5,Win32,60,,,0,122,122,122,1
,,,,z,1.12044,,,,,,houses/images/63.jpg,houses/images/281.jpg,124,kevin,001,2020-11-21_16h46.09.101,test2,2020.2.5,Win32,60,,,0,123,123,123,1
,,,,m,1.069985,,,,,,houses/images/64.jpg,houses/images/280.jpg,125,kevin,001,2020-11-21_16h46.09.101,test2,2020.2.5,Win32,60,,,0,124,124,124,1
,,,,m,1.185725,,,,,,houses/images/65.jpg,houses/images/309.jpg,126,kevin,001,2020-11-21_16h46.09.101,test2,2020.2.5,Win32,60,,,0,125,125,125,1
,,,,m,1.169425,,,,,,houses/images/66.jpg,houses/images/302.jpg,127,kevin,001,2020-11-21_16h46.09.101,test2,2020.2.5,Win32,60,,,0,126,126,126,1
,,,,m,1.935285,,,,,,houses/images/67.jpg,houses/images/300.jpg,128,kevin,001,2020-11-21_16h46.09.101,test2,2020.2.5,Win32,60,,,0,127,127,127,1
,,,,z,1.08854,,,,,,houses/images/68.jpg,houses/images/328.jpg,129,kevin,001,2020-11-21_16h46.09.101,test2,2020.2.5,Win32,60,,,0,128,128,128,1
,,,,z,1.242825,,,,,,houses/images/69.jpg,houses/images/114.jpg,130,kevin,001,2020-11-21_16h46.09.101,test2,2020.2.5,Win32,60,,,0,129,129,129,1
,,,,m,1.16477,,,,,,houses/images/7.jpg,houses/images/31.jpg,131,kevin,001,2020-11-21_16h46.09.101,test2,2020.2.5,Win32,60,,,0,130,130,130,1
,,,,z,1.71814,,,,,,houses/images/70.jpg,houses/images/54.jpg,132,kevin,001,2020-11-21_16h46.09.101,test2,2020.2.5,Win32,60,,,0,131,131,131,1
,,,,m,3.245165,,,,,,houses/images/71.jpg,houses/images/293.jpg,133,kevin,001,2020-11-21_16h46.09.101,test2,2020.2.5,Win32,60,,,0,132,132,132,1
,,,,m,1.207755,,,,,,houses/images/72.jpg,houses/images/37.jpg,134,kevin,001,2020-11-21_16h46.09.101,test2,2020.2.5,Win32,60,,,0,133,133,133,1
,,,,z,2.17814,,,,,,houses/images/73.jpg,houses/images/230.jpg,135,kevin,001,2020-11-21_16h46.09.101,test2,2020.2.5,Win32,60,,,0,134,134,134,1
,,,,m,1.41861,,,,,,houses/images/74.jpg,houses/images/88.jpg,136,kevin,001,2020-11-21_16h46.09.101,test2,2020.2.5,Win32,60,,,0,135,135,135,1
,,,,z,0.957135,,,,,,houses/images/75.jpg,houses/images/161.jpg,137,kevin,001,2020-11-21_16h46.09.101,test2,2020.2.5,Win32,60,,,0,136,136,136,1
,,,,z,1.733755,,,,,,houses/images/76.jpg,houses/images/354.jpg,138,kevin,001,2020-11-21_16h46.09.101,test2,2020.2.5,Win32,60,,,0,137,137,137,1
,,,,z,0.934405,,,,,,houses/images/77.jpg,houses/images/251.jpg,139,kevin,001,2020-11-21_16h46.09.101,test2,2020.2.5,Win32,60,,,0,138,138,138,1
,,,,m,4.11332,,,,,,houses/images/78.jpg,houses/images/143.jpg,140,kevin,001,2020-11-21_16h46.09.101,test2,2020.2.5,Win32,60,,,0,139,139,139,1
,,,,m,3.89759,,,,,,houses/images/79.jpg,houses/images/335.jpg,141,kevin,001,2020-11-21_16h46.09.101,test2,2020.2.5,Win32,60,,,0,140,140,140,1
,,,,z,0.934065,,,,,,houses/images/8.jpg,houses/images/231.jpg,142,kevin,001,2020-11-21_16h46.09.101,test2,2020.2.5,Win32,60,,,0,141,141,141,1
,,,,z,15.229085,,,,,,houses/images/80.jpg,houses/images/69.jpg,143,kevin,001,2020-11-21_16h46.09.101,test2,2020.2.5,Win32,60,,,0,142,142,142,1
,,,,z,0.87564,,,,,,houses/images/81.jpg,houses/images/92.jpg,144,kevin,001,2020-11-21_16h46.09.101,test2,2020.2.5,Win32,60,,,0,143,143,143,1
,,,,z,0.91012,,,,,,houses/images/82.jpg,houses/images/221.jpg,145,kevin,001,2020-11-21_16h46.09.101,test2,2020.2.5,Win32,60,,,0,144,144,144,1
,,,,z,1.452585,,,,,,houses/images/83.jpg,houses/images/196.jpg,146,kevin,001,2020-11-21_16h46.09.101,test2,2020.2.5,Win32,60,,,0,145,145,145,1
,,,,z,0.90341,,,,,,houses/images/84.jpg,houses/images/53.jpg,147,kevin,001,2020-11-21_16h46.09.101,test2,2020.2.5,Win32,60,,,0,146,146,146,1
,,,,m,2.025175,,,,,,houses/images/85.jpg,houses/images/166.jpg,148,kevin,001,2020-11-21_16h46.09.101,test2,2020.2.5,Win32,60,,,0,147,147,147,1
,,,,z,0.834045,,,,,,houses/images/86.jpg,houses/images/266.jpg,149,kevin,001,2020-11-21_16h46.09.101,test2,2020.2.5,Win32,60,,,0,148,148,148,1
,,,,z,2.59612,,,,,,houses/images/87.jpg,houses/images/355.jpg,150,kevin,001,2020-11-21_16h46.09.101,test2,2020.2.5,Win32,60,,,0,149,149,149,1
,,,,z,0.975105,,,,,,houses/images/88.jpg,houses/images/206.jpg,151,kevin,001,2020-11-21_16h46.09.101,test2,2020.2.5,Win32,60,,,0,150,150,150,1
,,,,z,2.49714,,,,,,houses/images/89.jpg,houses/images/241.jpg,152,kevin,001,2020-11-21_16h46.09.101,test2,2020.2.5,Win32,60,,,0,151,151,151,1
,,,,z,1.129905,,,,,,houses/images/9.jpg,houses/images/147.jpg,153,kevin,001,2020-11-21_16h46.09.101,test2,2020.2.5,Win32,60,,,0,152,152,152,1
,,,,z,1.47092,,,,,,houses/images/90.jpg,houses/images/117.jpg,154,kevin,001,2020-11-21_16h46.09.101,test2,2020.2.5,Win32,60,,,0,153,153,153,1
,,,,z,1.600065,,,,,,houses/images/91.jpg,houses/images/34.jpg,155,kevin,001,2020-11-21_16h46.09.101,test2,2020.2.5,Win32,60,,,0,154,154,154,1
,,,,z,0.82228,,,,,,houses/images/92.jpg,houses/images/105.jpg,156,kevin,001,2020-11-21_16h46.09.101,test2,2020.2.5,Win32,60,,,0,155,155,155,1
,,,,z,1.32848,,,,,,houses/images/93.jpg,houses/images/249.jpg,157,kevin,001,2020-11-21_16h46.09.101,test2,2020.2.5,Win32,60,,,0,156,156,156,1
,,,,z,0.70969,,,,,,houses/images/94.jpg,houses/images/265.jpg,158,kevin,001,2020-11-21_16h46.09.101,test2,2020.2.5,Win32,60,,,0,157,157,157,1
,,,,m,1.22536,,,,,,houses/images/95.jpg,houses/images/65.jpg,159,kevin,001,2020-11-21_16h46.09.101,test2,2020.2.5,Win32,60,,,0,158,158,158,1
,,,,z,1.62305,,,,,,houses/images/96.jpg,houses/images/83.jpg,160,kevin,001,2020-11-21_16h46.09.101,test2,2020.2.5,Win32,60,,,0,159,159,159,1
,,,,z,0.83695,,,,,,houses/images/97.jpg,houses/images/165.jpg,161,kevin,001,2020-11-21_16h46.09.101,test2,2020.2.5,Win32,60,,,0,160,160,160,1
,,,,m,1.104405,,,,,,houses/images/98.jpg,houses/images/280.jpg,162,kevin,001,2020-11-21_16h46.09.101,test2,2020.2.5,Win32,60,,,0,161,161,161,1
,,,,z,1.47163,,,,,,houses/images/199.jpg,houses/images/278.jpg,163,kevin,001,2020-11-21_16h46.09.101,test2,2020.2.5,Win32,60,,,0,162,162,162,1
,,,,z,0.91159,,,,,,houses/images/0.jpg,houses/images/297.jpg,164,kevin,001,2020-11-21_16h46.09.101,test2,2020.2.5,Win32,60,,,0,163,163,163,1
,,,,m,0.83518,,,,,,houses/images/1.jpg,houses/images/225.jpg,165,kevin,001,2020-11-21_16h46.09.101,test2,2020.2.5,Win32,60,,,0,164,164,164,1
,,,,m,0.916295,,,,,,houses/images/10.jpg,houses/images/41.jpg,166,kevin,001,2020-11-21_16h46.09.101,test2,2020.2.5,Win32,60,,,0,165,165,165,1
,,,,z,2.626085,,,,,,houses/images/100.jpg,houses/images/19.jpg,167,kevin,001,2020-11-21_16h46.09.101,test2,2020.2.5,Win32,60,,,0,166,166,166,1
,,,,z,1.4068,,,,,,houses/images/101.jpg,houses/images/189.jpg,168,kevin,001,2020-11-21_16h46.09.101,test2,2020.2.5,Win32,60,,,0,167,167,167,1
,,,,m,0.985215,,,,,,houses/images/102.jpg,houses/images/141.jpg,169,kevin,001,2020-11-21_16h46.09.101,test2,2020.2.5,Win32,60,,,0,168,168,168,1
,,,,z,1.329265,,,,,,houses/images/103.jpg,houses/images/212.jpg,170,kevin,001,2020-11-21_16h46.09.101,test2,2020.2.5,Win32,60,,,0,169,169,169,1
,,,,z,1.70319,,,,,,houses/images/104.jpg,houses/images/134.jpg,171,kevin,001,2020-11-21_16h46.09.101,test2,2020.2.5,Win32,60,,,0,170,170,170,1
,,,,m,1.263185,,,,,,houses/images/105.jpg,houses/images/13.jpg,172,kevin,001,2020-11-21_16h46.09.101,test2,2020.2.5,Win32,60,,,0,171,171,171,1
,,,,z,0.998,,,,,,houses/images/106.jpg,houses/images/258.jpg,173,kevin,001,2020-11-21_16h46.09.101,test2,2020.2.5,Win32,60,,,0,172,172,172,1
,,,,z,1.479005,,,,,,houses/images/107.jpg,houses/images/14.jpg,174,kevin,001,2020-11-21_16h46.09.101,test2,2020.2.5,Win32,60,,,0,173,173,173,1
,,,,z,3.805155,,,,,,houses/images/108.jpg,houses/images/9.jpg,175,kevin,001,2020-11-21_16h46.09.101,test2,2020.2.5,Win32,60,,,0,174,174,174,1
,,,,m,1.03309,,,,,,houses/images/109.jpg,houses/images/106.jpg,176,kevin,001,2020-11-21_16h46.09.101,test2,2020.2.5,Win32,60,,,0,175,175,175,1
,,,,z,2.228615,,,,,,houses/images/11.jpg,houses/images/268.jpg,177,kevin,001,2020-11-21_16h46.09.101,test2,2020.2.5,Win32,60,,,0,176,176,176,1
,,,,z,1.01303,,,,,,houses/images/210.jpg,houses/images/330.jpg,178,kevin,001,2020-11-21_16h46.09.101,test2,2020.2.5,Win32,60,,,0,177,177,177,1
,,,,m,1.16565,,,,,,houses/images/111.jpg,houses/images/343.jpg,179,kevin,001,2020-11-21_16h46.09.101,test2,2020.2.5,Win32,60,,,0,178,178,178,1
,,,,z,0.648295,,,,,,houses/images/112.jpg,houses/images/225.jpg,180,kevin,001,2020-11-21_16h46.09.101,test2,2020.2.5,Win32,60,,,0,179,179,179,1
,,,,m,1.34184,,,,,,houses/images/113.jpg,houses/images/174.jpg,181,kevin,001,2020-11-21_16h46.09.101,test2,2020.2.5,Win32,60,,,0,180,180,180,1
,,,,z,0.747355,,,,,,houses/images/114.jpg,houses/images/25.jpg,182,kevin,001,2020-11-21_16h46.09.101,test2,2020.2.5,Win32,60,,,0,181,181,181,1
,,,,z,0.7134,,,,,,houses/images/115.jpg,houses/images/100.jpg,183,kevin,001,2020-11-21_16h46.09.101,test2,2020.2.5,Win32,60,,,0,182,182,182,1
,,,,m,1.202285,,,,,,houses/images/116.jpg,houses/images/48.jpg,184,kevin,001,2020-11-21_16h46.09.101,test2,2020.2.5,Win32,60,,,0,183,183,183,1
,,,,m,1.25141,,,,,,houses/images/117.jpg,houses/images/296.jpg,185,kevin,001,2020-11-21_16h46.09.101,test2,2020.2.5,Win32,60,,,0,184,184,184,1
,,,,z,1.080475,,,,,,houses/images/118.jpg,houses/images/15.jpg,186,kevin,001,2020-11-21_16h46.09.101,test2,2020.2.5,Win32,60,,,0,185,185,185,1
,,,,m,1.381875,,,,,,houses/images/119.jpg,houses/images/252.jpg,187,kevin,001,2020-11-21_16h46.09.101,test2,2020.2.5,Win32,60,,,0,186,186,186,1
,,,,z,1.174045,,,,,,houses/images/12.jpg,houses/images/290.jpg,188,kevin,001,2020-11-21_16h46.09.101,test2,2020.2.5,Win32,60,,,0,187,187,187,1
,,,,m,1.546145,,,,,,houses/images/120.jpg,houses/images/236.jpg,189,kevin,001,2020-11-21_16h46.09.101,test2,2020.2.5,Win32,60,,,0,188,188,188,1
,,,,z,0.95117,,,,,,houses/images/121.jpg,houses/images/260.jpg,190,kevin,001,2020-11-21_16h46.09.101,test2,2020.2.5,Win32,60,,,0,189,189,189,1
,,,,m,1.428995,,,,,,houses/images/122.jpg,houses/images/56.jpg,191,kevin,001,2020-11-21_16h46.09.101,test2,2020.2.5,Win32,60,,,0,190,190,190,1
,,,,z,2.507385,,,,,,houses/images/123.jpg,houses/images/336.jpg,192,kevin,001,2020-11-21_16h46.09.101,test2,2020.2.5,Win32,60,,,0,191,191,191,1
,,,,m,1.96655,,,,,,houses/images/124.jpg,houses/images/39.jpg,193,kevin,001,2020-11-21_16h46.09.101,test2,2020.2.5,Win32,60,,,0,192,192,192,1
,,,,z,2.637995,,,,,,houses/images/225.jpg,houses/images/302.jpg,194,kevin,001,2020-11-21_16h46.09.101,test2,2020.2.5,Win32,60,,,0,193,193,193,1
,,,,z,2.35795,,,,,,houses/images/226.jpg,houses/images/207.jpg,195,kevin,001,2020-11-21_16h46.09.101,test2,2020.2.5,Win32,60,,,0,194,194,194,1
,,,,z,2.10221,,,,,,houses/images/127.jpg,houses/images/348.jpg,196,kevin,001,2020-11-21_16h46.09.101,test2,2020.2.5,Win32,60,,,0,195,195,195,1
,,,,z,0.988855,,,,,,houses/images/128.jpg,houses/images/151.jpg,197,kevin,001,2020-11-21_16h46.09.101,test2,2020.2.5,Win32,60,,,0,196,196,196,1
,,,,m,1.197115,,,,,,houses/images/129.jpg,houses/images/315.jpg,198,kevin,001,2020-11-21_16h46.09.101,test2,2020.2.5,Win32,60,,,0,197,197,197,1
,,,,z,1.310805,,,,,,houses/images/13.jpg,houses/images/63.jpg,199,kevin,001,2020-11-21_16h46.09.101,test2,2020.2.5,Win32,60,,,0,198,198,198,1
,,,,z,1.22101,,,,,,houses/images/307.jpg,houses/images/172.jpg,200,kevin,001,2020-11-21_16h46.09.101,test2,2020.2.5,Win32,60,,,0,199,199,199,1
