key_resp.keys,key_resp.rt,key_resp_3.keys,key_resp_3.rt,key_resp_2.keys,key_resp_2.rt,trials.thisRepN,trials.thisTrialN,trials.thisN,trials.thisIndex,trials.ran,image_left,image_right,trial_num,participant,session,date,expName,psychopyVersion,OS,frameRate,key_resp_4.keys,key_resp_4.rt,trials_2.thisRepN,trials_2.thisTrialN,trials_2.thisN,trials_2.thisIndex,trials_2.ran
space,27.009,space,15.422,z,8.093,0,0,0,0,1,houses/images/0.jpg,houses/images/349.jpg,1,Kristina,001,2020-11-20_15h07.25.929,test2,2020.2.5,MacIntel,60,,,,,,,
,,,,z,2.284,0,1,1,1,1,houses/images/1.jpg,houses/images/194.jpg,2,Kristina,001,2020-11-20_15h07.25.929,test2,2020.2.5,MacIntel,60,,,,,,,
,,,,m,1.74,0,2,2,2,1,houses/images/10.jpg,houses/images/159.jpg,3,Kristina,001,2020-11-20_15h07.25.929,test2,2020.2.5,MacIntel,60,,,,,,,
,,,,m,1.499,0,3,3,3,1,houses/images/100.jpg,houses/images/42.jpg,4,Kristina,001,2020-11-20_15h07.25.929,test2,2020.2.5,MacIntel,60,,,,,,,
,,,,z,1.708,0,4,4,4,1,houses/images/101.jpg,houses/images/240.jpg,5,Kristina,001,2020-11-20_15h07.25.929,test2,2020.2.5,MacIntel,60,,,,,,,
,,,,m,1.108,0,5,5,5,1,houses/images/102.jpg,houses/images/201.jpg,6,Kristina,001,2020-11-20_15h07.25.929,test2,2020.2.5,MacIntel,60,,,,,,,
,,,,z,2.756,0,6,6,6,1,houses/images/103.jpg,houses/images/223.jpg,7,Kristina,001,2020-11-20_15h07.25.929,test2,2020.2.5,MacIntel,60,,,,,,,
,,,,m,1.256,0,7,7,7,1,houses/images/104.jpg,houses/images/46.jpg,8,Kristina,001,2020-11-20_15h07.25.929,test2,2020.2.5,MacIntel,60,,,,,,,
,,,,z,1.444,0,8,8,8,1,houses/images/105.jpg,houses/images/109.jpg,9,Kristina,001,2020-11-20_15h07.25.929,test2,2020.2.5,MacIntel,60,,,,,,,
,,,,m,2.146,0,9,9,9,1,houses/images/106.jpg,houses/images/12.jpg,10,Kristina,001,2020-11-20_15h07.25.929,test2,2020.2.5,MacIntel,60,,,,,,,
,,,,z,1.851,0,10,10,10,1,houses/images/107.jpg,houses/images/358.jpg,11,Kristina,001,2020-11-20_15h07.25.929,test2,2020.2.5,MacIntel,60,,,,,,,
,,,,m,6.978,0,11,11,11,1,houses/images/108.jpg,houses/images/197.jpg,12,Kristina,001,2020-11-20_15h07.25.929,test2,2020.2.5,MacIntel,60,,,,,,,
,,,,z,1.539,0,12,12,12,1,houses/images/109.jpg,houses/images/133.jpg,13,Kristina,001,2020-11-20_15h07.25.929,test2,2020.2.5,MacIntel,60,,,,,,,
,,,,z,4.233,0,13,13,13,1,houses/images/11.jpg,houses/images/286.jpg,14,Kristina,001,2020-11-20_15h07.25.929,test2,2020.2.5,MacIntel,60,,,,,,,
,,,,z,1.616,0,14,14,14,1,houses/images/210.jpg,houses/images/33.jpg,15,Kristina,001,2020-11-20_15h07.25.929,test2,2020.2.5,MacIntel,60,,,,,,,
,,,,z,1.304,0,15,15,15,1,houses/images/111.jpg,houses/images/156.jpg,16,Kristina,001,2020-11-20_15h07.25.929,test2,2020.2.5,MacIntel,60,,,,,,,
,,,,m,2.382,0,16,16,16,1,houses/images/112.jpg,houses/images/128.jpg,17,Kristina,001,2020-11-20_15h07.25.929,test2,2020.2.5,MacIntel,60,,,,,,,
,,,,z,1.082,0,17,17,17,1,houses/images/113.jpg,houses/images/306.jpg,18,Kristina,001,2020-11-20_15h07.25.929,test2,2020.2.5,MacIntel,60,,,,,,,
,,,,m,1.251,0,18,18,18,1,houses/images/114.jpg,houses/images/272.jpg,19,Kristina,001,2020-11-20_15h07.25.929,test2,2020.2.5,MacIntel,60,,,,,,,
,,,,m,2.273,0,19,19,19,1,houses/images/115.jpg,houses/images/112.jpg,20,Kristina,001,2020-11-20_15h07.25.929,test2,2020.2.5,MacIntel,60,,,,,,,
,,,,z,1.563,0,20,20,20,1,houses/images/116.jpg,houses/images/101.jpg,21,Kristina,001,2020-11-20_15h07.25.929,test2,2020.2.5,MacIntel,60,,,,,,,
,,,,m,2.202,0,21,21,21,1,houses/images/117.jpg,houses/images/298.jpg,22,Kristina,001,2020-11-20_15h07.25.929,test2,2020.2.5,MacIntel,60,,,,,,,
,,,,z,3.834,0,22,22,22,1,houses/images/118.jpg,houses/images/80.jpg,23,Kristina,001,2020-11-20_15h07.25.929,test2,2020.2.5,MacIntel,60,,,,,,,
,,,,m,1.402,0,23,23,23,1,houses/images/119.jpg,houses/images/329.jpg,24,Kristina,001,2020-11-20_15h07.25.929,test2,2020.2.5,MacIntel,60,,,,,,,
,,,,m,1.67,0,24,24,24,1,houses/images/12.jpg,houses/images/320.jpg,25,Kristina,001,2020-11-20_15h07.25.929,test2,2020.2.5,MacIntel,60,,,,,,,
,,,,m,1.689,0,25,25,25,1,houses/images/120.jpg,houses/images/24.jpg,26,Kristina,001,2020-11-20_15h07.25.929,test2,2020.2.5,MacIntel,60,,,,,,,
,,,,m,1.05,0,26,26,26,1,houses/images/121.jpg,houses/images/341.jpg,27,Kristina,001,2020-11-20_15h07.25.929,test2,2020.2.5,MacIntel,60,,,,,,,
,,,,m,1.569,0,27,27,27,1,houses/images/122.jpg,houses/images/38.jpg,28,Kristina,001,2020-11-20_15h07.25.929,test2,2020.2.5,MacIntel,60,,,,,,,
,,,,z,1.887,0,28,28,28,1,houses/images/123.jpg,houses/images/98.jpg,29,Kristina,001,2020-11-20_15h07.25.929,test2,2020.2.5,MacIntel,60,,,,,,,
,,,,z,1.969,0,29,29,29,1,houses/images/124.jpg,houses/images/213.jpg,30,Kristina,001,2020-11-20_15h07.25.929,test2,2020.2.5,MacIntel,60,,,,,,,
,,,,z,3.832,0,30,30,30,1,houses/images/225.jpg,houses/images/208.jpg,31,Kristina,001,2020-11-20_15h07.25.929,test2,2020.2.5,MacIntel,60,,,,,,,
,,,,m,2.248,0,31,31,31,1,houses/images/226.jpg,houses/images/210.jpg,32,Kristina,001,2020-11-20_15h07.25.929,test2,2020.2.5,MacIntel,60,,,,,,,
,,,,z,1.605,0,32,32,32,1,houses/images/127.jpg,houses/images/90.jpg,33,Kristina,001,2020-11-20_15h07.25.929,test2,2020.2.5,MacIntel,60,,,,,,,
,,,,z,1.759,0,33,33,33,1,houses/images/128.jpg,houses/images/113.jpg,34,Kristina,001,2020-11-20_15h07.25.929,test2,2020.2.5,MacIntel,60,,,,,,,
,,,,z,1.616,0,34,34,34,1,houses/images/129.jpg,houses/images/232.jpg,35,Kristina,001,2020-11-20_15h07.25.929,test2,2020.2.5,MacIntel,60,,,,,,,
,,,,m,1.228,0,35,35,35,1,houses/images/13.jpg,houses/images/359.jpg,36,Kristina,001,2020-11-20_15h07.25.929,test2,2020.2.5,MacIntel,60,,,,,,,
,,,,m,1.331,0,36,36,36,1,houses/images/130.jpg,houses/images/187.jpg,37,Kristina,001,2020-11-20_15h07.25.929,test2,2020.2.5,MacIntel,60,,,,,,,
,,,,m,1.369,0,37,37,37,1,houses/images/131.jpg,houses/images/275.jpg,38,Kristina,001,2020-11-20_15h07.25.929,test2,2020.2.5,MacIntel,60,,,,,,,
,,,,m,1.369,0,38,38,38,1,houses/images/132.jpg,houses/images/162.jpg,39,Kristina,001,2020-11-20_15h07.25.929,test2,2020.2.5,MacIntel,60,,,,,,,
,,,,m,1.111,0,39,39,39,1,houses/images/133.jpg,houses/images/311.jpg,40,Kristina,001,2020-11-20_15h07.25.929,test2,2020.2.5,MacIntel,60,,,,,,,
,,,,z,2.542,0,40,40,40,1,houses/images/134.jpg,houses/images/277.jpg,41,Kristina,001,2020-11-20_15h07.25.929,test2,2020.2.5,MacIntel,60,,,,,,,
,,,,m,5.241,0,41,41,41,1,houses/images/135.jpg,houses/images/71.jpg,42,Kristina,001,2020-11-20_15h07.25.929,test2,2020.2.5,MacIntel,60,,,,,,,
,,,,z,1.498,0,42,42,42,1,houses/images/236.jpg,houses/images/72.jpg,43,Kristina,001,2020-11-20_15h07.25.929,test2,2020.2.5,MacIntel,60,,,,,,,
,,,,m,1.157,0,43,43,43,1,houses/images/137.jpg,houses/images/246.jpg,44,Kristina,001,2020-11-20_15h07.25.929,test2,2020.2.5,MacIntel,60,,,,,,,
,,,,m,1.361,0,44,44,44,1,houses/images/138.jpg,houses/images/174.jpg,45,Kristina,001,2020-11-20_15h07.25.929,test2,2020.2.5,MacIntel,60,,,,,,,
,,,,m,1.272,0,45,45,45,1,houses/images/239.jpg,houses/images/292.jpg,46,Kristina,001,2020-11-20_15h07.25.929,test2,2020.2.5,MacIntel,60,,,,,,,
,,,,m,1.945,0,46,46,46,1,houses/images/14.jpg,houses/images/194.jpg,47,Kristina,001,2020-11-20_15h07.25.929,test2,2020.2.5,MacIntel,60,,,,,,,
,,,,m,1.117,0,47,47,47,1,houses/images/240.jpg,houses/images/180.jpg,48,Kristina,001,2020-11-20_15h07.25.929,test2,2020.2.5,MacIntel,60,,,,,,,
,,,,z,1.671,0,48,48,48,1,houses/images/141.jpg,houses/images/262.jpg,49,Kristina,001,2020-11-20_15h07.25.929,test2,2020.2.5,MacIntel,60,,,,,,,
,,,,z,4.358,0,49,49,49,1,houses/images/42.jpg,houses/images/118.jpg,50,Kristina,001,2020-11-20_15h07.25.929,test2,2020.2.5,MacIntel,60,,,,,,,
,,,,z,1.821,0,50,50,50,1,houses/images/143.jpg,houses/images/316.jpg,51,Kristina,001,2020-11-20_15h07.25.929,test2,2020.2.5,MacIntel,60,,,,,,,
,,,,m,3.34,0,51,51,51,1,houses/images/144.jpg,houses/images/29.jpg,52,Kristina,001,2020-11-20_15h07.25.929,test2,2020.2.5,MacIntel,60,,,,,,,
,,,,m,1.368,0,52,52,52,1,houses/images/145.jpg,houses/images/146.jpg,53,Kristina,001,2020-11-20_15h07.25.929,test2,2020.2.5,MacIntel,60,,,,,,,
,,,,m,2.085,0,53,53,53,1,houses/images/146.jpg,houses/images/342.jpg,54,Kristina,001,2020-11-20_15h07.25.929,test2,2020.2.5,MacIntel,60,,,,,,,
,,,,z,1.043,0,54,54,54,1,houses/images/147.jpg,houses/images/120.jpg,55,Kristina,001,2020-11-20_15h07.25.929,test2,2020.2.5,MacIntel,60,,,,,,,
,,,,m,1.187,0,55,55,55,1,houses/images/148.jpg,houses/images/204.jpg,56,Kristina,001,2020-11-20_15h07.25.929,test2,2020.2.5,MacIntel,60,,,,,,,
,,,,m,1.22,0,56,56,56,1,houses/images/149.jpg,houses/images/292.jpg,57,Kristina,001,2020-11-20_15h07.25.929,test2,2020.2.5,MacIntel,60,,,,,,,
,,,,m,3.476,0,57,57,57,1,houses/images/15.jpg,houses/images/191.jpg,58,Kristina,001,2020-11-20_15h07.25.929,test2,2020.2.5,MacIntel,60,,,,,,,
,,,,z,2.045,0,58,58,58,1,houses/images/150.jpg,houses/images/318.jpg,59,Kristina,001,2020-11-20_15h07.25.929,test2,2020.2.5,MacIntel,60,,,,,,,
,,,,m,1.072,0,59,59,59,1,houses/images/151.jpg,houses/images/255.jpg,60,Kristina,001,2020-11-20_15h07.25.929,test2,2020.2.5,MacIntel,60,,,,,,,
,,,,z,2.482,0,60,60,60,1,houses/images/152.jpg,houses/images/261.jpg,61,Kristina,001,2020-11-20_15h07.25.929,test2,2020.2.5,MacIntel,60,,,,,,,
,,,,z,5.247,0,61,61,61,1,houses/images/253.jpg,houses/images/129.jpg,62,Kristina,001,2020-11-20_15h07.25.929,test2,2020.2.5,MacIntel,60,,,,,,,
,,,,z,2.19,0,62,62,62,1,houses/images/154.jpg,houses/images/36.jpg,63,Kristina,001,2020-11-20_15h07.25.929,test2,2020.2.5,MacIntel,60,,,,,,,
,,,,m,4.635,0,63,63,63,1,houses/images/155.jpg,houses/images/210.jpg,64,Kristina,001,2020-11-20_15h07.25.929,test2,2020.2.5,MacIntel,60,,,,,,,
,,,,m,1.732,0,64,64,64,1,houses/images/156.jpg,houses/images/132.jpg,65,Kristina,001,2020-11-20_15h07.25.929,test2,2020.2.5,MacIntel,60,,,,,,,
,,,,z,1.351,0,65,65,65,1,houses/images/157.jpg,houses/images/70.jpg,66,Kristina,001,2020-11-20_15h07.25.929,test2,2020.2.5,MacIntel,60,,,,,,,
,,,,z,1.988,0,66,66,66,1,houses/images/158.jpg,houses/images/199.jpg,67,Kristina,001,2020-11-20_15h07.25.929,test2,2020.2.5,MacIntel,60,,,,,,,
,,,,m,1.417,0,67,67,67,1,houses/images/159.jpg,houses/images/226.jpg,68,Kristina,001,2020-11-20_15h07.25.929,test2,2020.2.5,MacIntel,60,,,,,,,
,,,,z,1.859,0,68,68,68,1,houses/images/16.jpg,houses/images/50.jpg,69,Kristina,001,2020-11-20_15h07.25.929,test2,2020.2.5,MacIntel,60,,,,,,,
,,,,z,1.981,0,69,69,69,1,houses/images/160.jpg,houses/images/239.jpg,70,Kristina,001,2020-11-20_15h07.25.929,test2,2020.2.5,MacIntel,60,,,,,,,
,,,,z,1.555,0,70,70,70,1,houses/images/161.jpg,houses/images/289.jpg,71,Kristina,001,2020-11-20_15h07.25.929,test2,2020.2.5,MacIntel,60,,,,,,,
,,,,m,2.054,0,71,71,71,1,houses/images/162.jpg,houses/images/325.jpg,72,Kristina,001,2020-11-20_15h07.25.929,test2,2020.2.5,MacIntel,60,,,,,,,
,,,,z,0.984,0,72,72,72,1,houses/images/163.jpg,houses/images/259.jpg,73,Kristina,001,2020-11-20_15h07.25.929,test2,2020.2.5,MacIntel,60,,,,,,,
,,,,z,1.676,0,73,73,73,1,houses/images/164.jpg,houses/images/316.jpg,74,Kristina,001,2020-11-20_15h07.25.929,test2,2020.2.5,MacIntel,60,,,,,,,
,,,,m,1.907,0,74,74,74,1,houses/images/165.jpg,houses/images/311.jpg,75,Kristina,001,2020-11-20_15h07.25.929,test2,2020.2.5,MacIntel,60,,,,,,,
,,,,m,2.528,0,75,75,75,1,houses/images/166.jpg,houses/images/246.jpg,76,Kristina,001,2020-11-20_15h07.25.929,test2,2020.2.5,MacIntel,60,,,,,,,
,,,,m,1.542,0,76,76,76,1,houses/images/167.jpg,houses/images/269.jpg,77,Kristina,001,2020-11-20_15h07.25.929,test2,2020.2.5,MacIntel,60,,,,,,,
,,,,m,1.221,0,77,77,77,1,houses/images/168.jpg,houses/images/360.jpg,78,Kristina,001,2020-11-20_15h07.25.929,test2,2020.2.5,MacIntel,60,,,,,,,
,,,,m,2.594,0,78,78,78,1,houses/images/169.jpg,houses/images/116.jpg,79,Kristina,001,2020-11-20_15h07.25.929,test2,2020.2.5,MacIntel,60,,,,,,,
,,,,z,1.923,0,79,79,79,1,houses/images/17.jpg,houses/images/245.jpg,80,Kristina,001,2020-11-20_15h07.25.929,test2,2020.2.5,MacIntel,60,,,,,,,
,,,,z,2.14,0,80,80,80,1,houses/images/170.jpg,houses/images/152.jpg,81,Kristina,001,2020-11-20_15h07.25.929,test2,2020.2.5,MacIntel,60,,,,,,,
,,,,z,3.421,0,81,81,81,1,houses/images/171.jpg,houses/images/77.jpg,82,Kristina,001,2020-11-20_15h07.25.929,test2,2020.2.5,MacIntel,60,,,,,,,
,,,,m,3.031,0,82,82,82,1,houses/images/172.jpg,houses/images/154.jpg,83,Kristina,001,2020-11-20_15h07.25.929,test2,2020.2.5,MacIntel,60,,,,,,,
,,,,m,1.911,0,83,83,83,1,houses/images/273.jpg,houses/images/210.jpg,84,Kristina,001,2020-11-20_15h07.25.929,test2,2020.2.5,MacIntel,60,,,,,,,
,,,,z,7.667,0,84,84,84,1,houses/images/174.jpg,houses/images/121.jpg,85,Kristina,001,2020-11-20_15h07.25.929,test2,2020.2.5,MacIntel,60,,,,,,,
,,,,z,1.854,0,85,85,85,1,houses/images/175.jpg,houses/images/47.jpg,86,Kristina,001,2020-11-20_15h07.25.929,test2,2020.2.5,MacIntel,60,,,,,,,
,,,,z,19.318,0,86,86,86,1,houses/images/176.jpg,houses/images/328.jpg,87,Kristina,001,2020-11-20_15h07.25.929,test2,2020.2.5,MacIntel,60,,,,,,,
,,,,m,2.606,0,87,87,87,1,houses/images/177.jpg,houses/images/35.jpg,88,Kristina,001,2020-11-20_15h07.25.929,test2,2020.2.5,MacIntel,60,,,,,,,
,,,,m,1.384,0,88,88,88,1,houses/images/178.jpg,houses/images/299.jpg,89,Kristina,001,2020-11-20_15h07.25.929,test2,2020.2.5,MacIntel,60,,,,,,,
,,,,m,1.14,0,89,89,89,1,houses/images/179.jpg,houses/images/283.jpg,90,Kristina,001,2020-11-20_15h07.25.929,test2,2020.2.5,MacIntel,60,,,,,,,
,,,,z,1.337,0,90,90,90,1,houses/images/18.jpg,houses/images/182.jpg,91,Kristina,001,2020-11-20_15h07.25.929,test2,2020.2.5,MacIntel,60,,,,,,,
,,,,z,2.863,0,91,91,91,1,houses/images/180.jpg,houses/images/327.jpg,92,Kristina,001,2020-11-20_15h07.25.929,test2,2020.2.5,MacIntel,60,,,,,,,
,,,,m,0.957,0,92,92,92,1,houses/images/281.jpg,houses/images/334.jpg,93,Kristina,001,2020-11-20_15h07.25.929,test2,2020.2.5,MacIntel,60,,,,,,,
,,,,m,1.206,0,93,93,93,1,houses/images/182.jpg,houses/images/75.jpg,94,Kristina,001,2020-11-20_15h07.25.929,test2,2020.2.5,MacIntel,60,,,,,,,
,,,,z,1.03,0,94,94,94,1,houses/images/183.jpg,houses/images/137.jpg,95,Kristina,001,2020-11-20_15h07.25.929,test2,2020.2.5,MacIntel,60,,,,,,,
,,,,m,1.001,0,95,95,95,1,houses/images/184.jpg,houses/images/344.jpg,96,Kristina,001,2020-11-20_15h07.25.929,test2,2020.2.5,MacIntel,60,,,,,,,
,,,,m,1.313,0,96,96,96,1,houses/images/185.jpg,houses/images/285.jpg,97,Kristina,001,2020-11-20_15h07.25.929,test2,2020.2.5,MacIntel,60,,,,,,,
,,,,z,2.057,0,97,97,97,1,houses/images/186.jpg,houses/images/230.jpg,98,Kristina,001,2020-11-20_15h07.25.929,test2,2020.2.5,MacIntel,60,,,,,,,
,,,,z,3.695,0,98,98,98,1,houses/images/187.jpg,houses/images/3.jpg,99,Kristina,001,2020-11-20_15h07.25.929,test2,2020.2.5,MacIntel,60,,,,,,,
,,,,m,1.543,0,99,99,99,1,houses/images/188.jpg,houses/images/304.jpg,100,Kristina,001,2020-11-20_15h07.25.929,test2,2020.2.5,MacIntel,60,,,,,,,
,,,,z,1.954,0,100,100,100,1,houses/images/189.jpg,houses/images/17.jpg,101,Kristina,001,2020-11-20_15h07.25.929,test2,2020.2.5,MacIntel,60,,,,,,,
,,,,m,1.377,0,101,101,101,1,houses/images/19.jpg,houses/images/351.jpg,102,Kristina,001,2020-11-20_15h07.25.929,test2,2020.2.5,MacIntel,60,,,,,,,
,,,,m,2.049,0,102,102,102,1,houses/images/190.jpg,houses/images/307.jpg,103,Kristina,001,2020-11-20_15h07.25.929,test2,2020.2.5,MacIntel,60,,,,,,,
,,,,z,1.391,0,103,103,103,1,houses/images/191.jpg,houses/images/326.jpg,104,Kristina,001,2020-11-20_15h07.25.929,test2,2020.2.5,MacIntel,60,,,,,,,
,,,,z,2.516,0,104,104,104,1,houses/images/292.jpg,houses/images/240.jpg,105,Kristina,001,2020-11-20_15h07.25.929,test2,2020.2.5,MacIntel,60,,,,,,,
,,,,m,4.411,0,105,105,105,1,houses/images/193.jpg,houses/images/243.jpg,106,Kristina,001,2020-11-20_15h07.25.929,test2,2020.2.5,MacIntel,60,,,,,,,
,,,,z,0.909,0,106,106,106,1,houses/images/194.jpg,houses/images/291.jpg,107,Kristina,001,2020-11-20_15h07.25.929,test2,2020.2.5,MacIntel,60,,,,,,,
,,,,m,1.339,0,107,107,107,1,houses/images/195.jpg,houses/images/361.jpg,108,Kristina,001,2020-11-20_15h07.25.929,test2,2020.2.5,MacIntel,60,,,,,,,
,,,,m,5.325,0,108,108,108,1,houses/images/196.jpg,houses/images/30.jpg,109,Kristina,001,2020-11-20_15h07.25.929,test2,2020.2.5,MacIntel,60,,,,,,,
,,,,m,1.635,0,109,109,109,1,houses/images/197.jpg,houses/images/22.jpg,110,Kristina,001,2020-11-20_15h07.25.929,test2,2020.2.5,MacIntel,60,,,,,,,
,,,,z,1.594,0,110,110,110,1,houses/images/198.jpg,houses/images/250.jpg,111,Kristina,001,2020-11-20_15h07.25.929,test2,2020.2.5,MacIntel,60,,,,,,,
,,,,m,1.141,0,111,111,111,1,houses/images/199.jpg,houses/images/323.jpg,112,Kristina,001,2020-11-20_15h07.25.929,test2,2020.2.5,MacIntel,60,,,,,,,
,,,,m,3.661,0,112,112,112,1,houses/images/2.jpg,houses/images/187.jpg,113,Kristina,001,2020-11-20_15h07.25.929,test2,2020.2.5,MacIntel,60,,,,,,,
,,,,z,1.012,0,113,113,113,1,houses/images/20.jpg,houses/images/100.jpg,114,Kristina,001,2020-11-20_15h07.25.929,test2,2020.2.5,MacIntel,60,,,,,,,
,,,,z,1.727,0,114,114,114,1,houses/images/200.jpg,houses/images/238.jpg,115,Kristina,001,2020-11-20_15h07.25.929,test2,2020.2.5,MacIntel,60,,,,,,,
,,,,z,2.787,0,115,115,115,1,houses/images/201.jpg,houses/images/58.jpg,116,Kristina,001,2020-11-20_15h07.25.929,test2,2020.2.5,MacIntel,60,,,,,,,
,,,,m,1.211,0,116,116,116,1,houses/images/202.jpg,houses/images/205.jpg,117,Kristina,001,2020-11-20_15h07.25.929,test2,2020.2.5,MacIntel,60,,,,,,,
,,,,m,2.012,0,117,117,117,1,houses/images/203.jpg,houses/images/40.jpg,118,Kristina,001,2020-11-20_15h07.25.929,test2,2020.2.5,MacIntel,60,,,,,,,
,,,,m,1.67,0,118,118,118,1,houses/images/204.jpg,houses/images/64.jpg,119,Kristina,001,2020-11-20_15h07.25.929,test2,2020.2.5,MacIntel,60,,,,,,,
,,,,m,1.716,0,119,119,119,1,houses/images/205.jpg,houses/images/155.jpg,120,Kristina,001,2020-11-20_15h07.25.929,test2,2020.2.5,MacIntel,60,,,,,,,
,,,,m,2.002,0,120,120,120,1,houses/images/206.jpg,houses/images/199.jpg,121,Kristina,001,2020-11-20_15h07.25.929,test2,2020.2.5,MacIntel,60,,,,,,,
,,,,z,1.848,0,121,121,121,1,houses/images/207.jpg,houses/images/233.jpg,122,Kristina,001,2020-11-20_15h07.25.929,test2,2020.2.5,MacIntel,60,,,,,,,
,,,,m,1.974,0,122,122,122,1,houses/images/208.jpg,houses/images/8.jpg,123,Kristina,001,2020-11-20_15h07.25.929,test2,2020.2.5,MacIntel,60,,,,,,,
,,,,z,1.711,0,123,123,123,1,houses/images/209.jpg,houses/images/167.jpg,124,Kristina,001,2020-11-20_15h07.25.929,test2,2020.2.5,MacIntel,60,,,,,,,
,,,,z,4.008,0,124,124,124,1,houses/images/21.jpg,houses/images/103.jpg,125,Kristina,001,2020-11-20_15h07.25.929,test2,2020.2.5,MacIntel,60,,,,,,,
,,,,z,2.831,0,125,125,125,1,houses/images/210.jpg,houses/images/104.jpg,126,Kristina,001,2020-11-20_15h07.25.929,test2,2020.2.5,MacIntel,60,,,,,,,
,,,,m,1.352,0,126,126,126,1,houses/images/211.jpg,houses/images/327.jpg,127,Kristina,001,2020-11-20_15h07.25.929,test2,2020.2.5,MacIntel,60,,,,,,,
,,,,z,2.591,0,127,127,127,1,houses/images/212.jpg,houses/images/253.jpg,128,Kristina,001,2020-11-20_15h07.25.929,test2,2020.2.5,MacIntel,60,,,,,,,
,,,,m,3.374,0,128,128,128,1,houses/images/213.jpg,houses/images/26.jpg,129,Kristina,001,2020-11-20_15h07.25.929,test2,2020.2.5,MacIntel,60,,,,,,,
,,,,z,2.161,0,129,129,129,1,houses/images/214.jpg,houses/images/198.jpg,130,Kristina,001,2020-11-20_15h07.25.929,test2,2020.2.5,MacIntel,60,,,,,,,
,,,,z,1.574,0,130,130,130,1,houses/images/215.jpg,houses/images/4.jpg,131,Kristina,001,2020-11-20_15h07.25.929,test2,2020.2.5,MacIntel,60,,,,,,,
,,,,m,1.164,0,131,131,131,1,houses/images/316.jpg,houses/images/62.jpg,132,Kristina,001,2020-11-20_15h07.25.929,test2,2020.2.5,MacIntel,60,,,,,,,
,,,,m,3.309,0,132,132,132,1,houses/images/217.jpg,houses/images/114.jpg,133,Kristina,001,2020-11-20_15h07.25.929,test2,2020.2.5,MacIntel,60,,,,,,,
,,,,z,1.113,0,133,133,133,1,houses/images/318.jpg,houses/images/308.jpg,134,Kristina,001,2020-11-20_15h07.25.929,test2,2020.2.5,MacIntel,60,,,,,,,
,,,,m,1.389,0,134,134,134,1,houses/images/219.jpg,houses/images/254.jpg,135,Kristina,001,2020-11-20_15h07.25.929,test2,2020.2.5,MacIntel,60,,,,,,,
,,,,m,1.193,0,135,135,135,1,houses/images/22.jpg,houses/images/170.jpg,136,Kristina,001,2020-11-20_15h07.25.929,test2,2020.2.5,MacIntel,60,,,,,,,
,,,,m,2.092,0,136,136,136,1,houses/images/220.jpg,houses/images/179.jpg,137,Kristina,001,2020-11-20_15h07.25.929,test2,2020.2.5,MacIntel,60,,,,,,,
,,,,m,1.348,0,137,137,137,1,houses/images/221.jpg,houses/images/238.jpg,138,Kristina,001,2020-11-20_15h07.25.929,test2,2020.2.5,MacIntel,60,,,,,,,
,,,,m,3.79,0,138,138,138,1,houses/images/222.jpg,houses/images/256.jpg,139,Kristina,001,2020-11-20_15h07.25.929,test2,2020.2.5,MacIntel,60,,,,,,,
,,,,m,1.388,0,139,139,139,1,houses/images/223.jpg,houses/images/322.jpg,140,Kristina,001,2020-11-20_15h07.25.929,test2,2020.2.5,MacIntel,60,,,,,,,
,,,,m,1.247,0,140,140,140,1,houses/images/224.jpg,houses/images/209.jpg,141,Kristina,001,2020-11-20_15h07.25.929,test2,2020.2.5,MacIntel,60,,,,,,,
,,,,z,1.265,0,141,141,141,1,houses/images/225.jpg,houses/images/219.jpg,142,Kristina,001,2020-11-20_15h07.25.929,test2,2020.2.5,MacIntel,60,,,,,,,
,,,,z,1.549,0,142,142,142,1,houses/images/226.jpg,houses/images/79.jpg,143,Kristina,001,2020-11-20_15h07.25.929,test2,2020.2.5,MacIntel,60,,,,,,,
,,,,z,6.076,0,143,143,143,1,houses/images/227.jpg,houses/images/279.jpg,144,Kristina,001,2020-11-20_15h07.25.929,test2,2020.2.5,MacIntel,60,,,,,,,
,,,,m,0.924,0,144,144,144,1,houses/images/228.jpg,houses/images/111.jpg,145,Kristina,001,2020-11-20_15h07.25.929,test2,2020.2.5,MacIntel,60,,,,,,,
,,,,m,1.684,0,145,145,145,1,houses/images/229.jpg,houses/images/257.jpg,146,Kristina,001,2020-11-20_15h07.25.929,test2,2020.2.5,MacIntel,60,,,,,,,
,,,,z,2.741,0,146,146,146,1,houses/images/23.jpg,houses/images/318.jpg,147,Kristina,001,2020-11-20_15h07.25.929,test2,2020.2.5,MacIntel,60,,,,,,,
,,,,m,1.489,0,147,147,147,1,houses/images/230.jpg,houses/images/312.jpg,148,Kristina,001,2020-11-20_15h07.25.929,test2,2020.2.5,MacIntel,60,,,,,,,
,,,,m,1.967,0,148,148,148,1,houses/images/231.jpg,houses/images/253.jpg,149,Kristina,001,2020-11-20_15h07.25.929,test2,2020.2.5,MacIntel,60,,,,,,,
,,,,m,1.115,0,149,149,149,1,houses/images/232.jpg,houses/images/236.jpg,150,Kristina,001,2020-11-20_15h07.25.929,test2,2020.2.5,MacIntel,60,,,,,,,
,,,,m,1.424,0,150,150,150,1,houses/images/233.jpg,houses/images/66.jpg,151,Kristina,001,2020-11-20_15h07.25.929,test2,2020.2.5,MacIntel,60,,,,,,,
,,,,z,5.828,0,151,151,151,1,houses/images/234.jpg,houses/images/138.jpg,152,Kristina,001,2020-11-20_15h07.25.929,test2,2020.2.5,MacIntel,60,,,,,,,
,,,,m,2.918,0,152,152,152,1,houses/images/235.jpg,houses/images/124.jpg,153,Kristina,001,2020-11-20_15h07.25.929,test2,2020.2.5,MacIntel,60,,,,,,,
,,,,m,2.188,0,153,153,153,1,houses/images/236.jpg,houses/images/160.jpg,154,Kristina,001,2020-11-20_15h07.25.929,test2,2020.2.5,MacIntel,60,,,,,,,
,,,,m,1.508,0,154,154,154,1,houses/images/237.jpg,houses/images/314.jpg,155,Kristina,001,2020-11-20_15h07.25.929,test2,2020.2.5,MacIntel,60,,,,,,,
,,,,z,1.94,0,155,155,155,1,houses/images/238.jpg,houses/images/145.jpg,156,Kristina,001,2020-11-20_15h07.25.929,test2,2020.2.5,MacIntel,60,,,,,,,
,,,,m,1.286,0,156,156,156,1,houses/images/239.jpg,houses/images/195.jpg,157,Kristina,001,2020-11-20_15h07.25.929,test2,2020.2.5,MacIntel,60,,,,,,,
,,,,m,1.918,0,157,157,157,1,houses/images/24.jpg,houses/images/0.jpg,158,Kristina,001,2020-11-20_15h07.25.929,test2,2020.2.5,MacIntel,60,,,,,,,
,,,,m,1.622,0,158,158,158,1,houses/images/240.jpg,houses/images/81.jpg,159,Kristina,001,2020-11-20_15h07.25.929,test2,2020.2.5,MacIntel,60,,,,,,,
,,,,m,1.855,0,159,159,159,1,houses/images/241.jpg,houses/images/226.jpg,160,Kristina,001,2020-11-20_15h07.25.929,test2,2020.2.5,MacIntel,60,,,,,,,
,,,,m,1.729,0,160,160,160,1,houses/images/342.jpg,houses/images/319.jpg,161,Kristina,001,2020-11-20_15h07.25.929,test2,2020.2.5,MacIntel,60,,,,,,,
,,,,m,5.739,0,161,161,161,1,houses/images/243.jpg,houses/images/23.jpg,162,Kristina,001,2020-11-20_15h07.25.929,test2,2020.2.5,MacIntel,60,,,,,,,
,,,,z,2.97,0,162,162,162,1,houses/images/244.jpg,houses/images/146.jpg,163,Kristina,001,2020-11-20_15h07.25.929,test2,2020.2.5,MacIntel,60,,,,,,,
,,,,m,1.724,0,163,163,163,1,houses/images/245.jpg,houses/images/28.jpg,164,Kristina,001,2020-11-20_15h07.25.929,test2,2020.2.5,MacIntel,60,,,,,,,
,,,,m,4.495,0,164,164,164,1,houses/images/246.jpg,houses/images/157.jpg,165,Kristina,001,2020-11-20_15h07.25.929,test2,2020.2.5,MacIntel,60,,,,,,,
,,,,z,2.324,0,165,165,165,1,houses/images/247.jpg,houses/images/2.jpg,166,Kristina,001,2020-11-20_15h07.25.929,test2,2020.2.5,MacIntel,60,,,,,,,
,,,,z,1.782,0,166,166,166,1,houses/images/248.jpg,houses/images/87.jpg,167,Kristina,001,2020-11-20_15h07.25.929,test2,2020.2.5,MacIntel,60,,,,,,,
,,,,z,3.853,0,167,167,167,1,houses/images/249.jpg,houses/images/270.jpg,168,Kristina,001,2020-11-20_15h07.25.929,test2,2020.2.5,MacIntel,60,,,,,,,
,,,,m,1.402,0,168,168,168,1,houses/images/25.jpg,houses/images/67.jpg,169,Kristina,001,2020-11-20_15h07.25.929,test2,2020.2.5,MacIntel,60,,,,,,,
,,,,z,1.857,0,169,169,169,1,houses/images/250.jpg,houses/images/234.jpg,170,Kristina,001,2020-11-20_15h07.25.929,test2,2020.2.5,MacIntel,60,,,,,,,
,,,,z,2.711,0,170,170,170,1,houses/images/251.jpg,houses/images/16.jpg,171,Kristina,001,2020-11-20_15h07.25.929,test2,2020.2.5,MacIntel,60,,,,,,,
,,,,m,1.361,0,171,171,171,1,houses/images/252.jpg,houses/images/12.jpg,172,Kristina,001,2020-11-20_15h07.25.929,test2,2020.2.5,MacIntel,60,,,,,,,
,,,,z,2.269,0,172,172,172,1,houses/images/253.jpg,houses/images/185.jpg,173,Kristina,001,2020-11-20_15h07.25.929,test2,2020.2.5,MacIntel,60,,,,,,,
,,,,z,2.419,0,173,173,173,1,houses/images/254.jpg,houses/images/39.jpg,174,Kristina,001,2020-11-20_15h07.25.929,test2,2020.2.5,MacIntel,60,,,,,,,
,,,,z,3.332,0,174,174,174,1,houses/images/255.jpg,houses/images/237.jpg,175,Kristina,001,2020-11-20_15h07.25.929,test2,2020.2.5,MacIntel,60,,,,,,,
,,,,m,1.49,0,175,175,175,1,houses/images/256.jpg,houses/images/356.jpg,176,Kristina,001,2020-11-20_15h07.25.929,test2,2020.2.5,MacIntel,60,,,,,,,
,,,,z,1.3,0,176,176,176,1,houses/images/257.jpg,houses/images/107.jpg,177,Kristina,001,2020-11-20_15h07.25.929,test2,2020.2.5,MacIntel,60,,,,,,,
,,,,z,2.567,0,177,177,177,1,houses/images/258.jpg,houses/images/84.jpg,178,Kristina,001,2020-11-20_15h07.25.929,test2,2020.2.5,MacIntel,60,,,,,,,
,,,,m,1.459,0,178,178,178,1,houses/images/259.jpg,houses/images/119.jpg,179,Kristina,001,2020-11-20_15h07.25.929,test2,2020.2.5,MacIntel,60,,,,,,,
,,,,z,2.112,0,179,179,179,1,houses/images/26.jpg,houses/images/227.jpg,180,Kristina,001,2020-11-20_15h07.25.929,test2,2020.2.5,MacIntel,60,,,,,,,
,,,,m,1.785,0,180,180,180,1,houses/images/260.jpg,houses/images/238.jpg,181,Kristina,001,2020-11-20_15h07.25.929,test2,2020.2.5,MacIntel,60,,,,,,,
,,,,z,2.853,0,181,181,181,1,houses/images/261.jpg,houses/images/337.jpg,182,Kristina,001,2020-11-20_15h07.25.929,test2,2020.2.5,MacIntel,60,,,,,,,
,,,,m,1.055,0,182,182,182,1,houses/images/262.jpg,houses/images/214.jpg,183,Kristina,001,2020-11-20_15h07.25.929,test2,2020.2.5,MacIntel,60,,,,,,,
,,,,m,1.643,0,183,183,183,1,houses/images/263.jpg,houses/images/239.jpg,184,Kristina,001,2020-11-20_15h07.25.929,test2,2020.2.5,MacIntel,60,,,,,,,
,,,,m,1.443,0,184,184,184,1,houses/images/264.jpg,houses/images/149.jpg,185,Kristina,001,2020-11-20_15h07.25.929,test2,2020.2.5,MacIntel,60,,,,,,,
,,,,m,1.832,0,185,185,185,1,houses/images/265.jpg,houses/images/68.jpg,186,Kristina,001,2020-11-20_15h07.25.929,test2,2020.2.5,MacIntel,60,,,,,,,
,,,,z,0.96,0,186,186,186,1,houses/images/266.jpg,houses/images/271.jpg,187,Kristina,001,2020-11-20_15h07.25.929,test2,2020.2.5,MacIntel,60,,,,,,,
,,,,m,1.092,0,187,187,187,1,houses/images/267.jpg,houses/images/87.jpg,188,Kristina,001,2020-11-20_15h07.25.929,test2,2020.2.5,MacIntel,60,,,,,,,
,,,,m,1.191,0,188,188,188,1,houses/images/268.jpg,houses/images/348.jpg,189,Kristina,001,2020-11-20_15h07.25.929,test2,2020.2.5,MacIntel,60,,,,,,,
,,,,z,1.065,0,189,189,189,1,houses/images/269.jpg,houses/images/228.jpg,190,Kristina,001,2020-11-20_15h07.25.929,test2,2020.2.5,MacIntel,60,,,,,,,
,,,,m,1.104,0,190,190,190,1,houses/images/27.jpg,houses/images/317.jpg,191,Kristina,001,2020-11-20_15h07.25.929,test2,2020.2.5,MacIntel,60,,,,,,,
,,,,m,2.614,0,191,191,191,1,houses/images/270.jpg,houses/images/10.jpg,192,Kristina,001,2020-11-20_15h07.25.929,test2,2020.2.5,MacIntel,60,,,,,,,
,,,,m,1.518,0,192,192,192,1,houses/images/271.jpg,houses/images/222.jpg,193,Kristina,001,2020-11-20_15h07.25.929,test2,2020.2.5,MacIntel,60,,,,,,,
,,,,z,1.412,0,193,193,193,1,houses/images/272.jpg,houses/images/314.jpg,194,Kristina,001,2020-11-20_15h07.25.929,test2,2020.2.5,MacIntel,60,,,,,,,
,,,,m,0.969,0,194,194,194,1,houses/images/273.jpg,houses/images/28.jpg,195,Kristina,001,2020-11-20_15h07.25.929,test2,2020.2.5,MacIntel,60,,,,,,,
,,,,m,1.178,0,195,195,195,1,houses/images/174.jpg,houses/images/294.jpg,196,Kristina,001,2020-11-20_15h07.25.929,test2,2020.2.5,MacIntel,60,,,,,,,
,,,,z,2.164,0,196,196,196,1,houses/images/275.jpg,houses/images/60.jpg,197,Kristina,001,2020-11-20_15h07.25.929,test2,2020.2.5,MacIntel,60,,,,,,,
,,,,z,2.177,0,197,197,197,1,houses/images/276.jpg,houses/images/144.jpg,198,Kristina,001,2020-11-20_15h07.25.929,test2,2020.2.5,MacIntel,60,,,,,,,
,,,,m,0.963,0,198,198,198,1,houses/images/277.jpg,houses/images/168.jpg,199,Kristina,001,2020-11-20_15h07.25.929,test2,2020.2.5,MacIntel,60,,,,,,,
,,,,z,1.005,0,199,199,199,1,houses/images/278.jpg,houses/images/206.jpg,200,Kristina,001,2020-11-20_15h07.25.929,test2,2020.2.5,MacIntel,60,,,,,,,
,,,,z,9.839,,,,,,houses/images/279.jpg,houses/images/91.jpg,1,Kristina,001,2020-11-20_15h07.25.929,test2,2020.2.5,MacIntel,60,space,0.913,0,0,0,0,1
,,,,z,1.223,,,,,,houses/images/28.jpg,houses/images/49.jpg,2,Kristina,001,2020-11-20_15h07.25.929,test2,2020.2.5,MacIntel,60,,,0,1,1,1,1
,,,,m,1.999,,,,,,houses/images/280.jpg,houses/images/163.jpg,3,Kristina,001,2020-11-20_15h07.25.929,test2,2020.2.5,MacIntel,60,,,0,2,2,2,1
,,,,m,0.818,,,,,,houses/images/281.jpg,houses/images/176.jpg,4,Kristina,001,2020-11-20_15h07.25.929,test2,2020.2.5,MacIntel,60,,,0,3,3,3,1
,,,,z,1.911,,,,,,houses/images/282.jpg,houses/images/263.jpg,5,Kristina,001,2020-11-20_15h07.25.929,test2,2020.2.5,MacIntel,60,,,0,4,4,4,1
,,,,m,1.696,,,,,,houses/images/283.jpg,houses/images/303.jpg,6,Kristina,001,2020-11-20_15h07.25.929,test2,2020.2.5,MacIntel,60,,,0,5,5,5,1
,,,,m,0.963,,,,,,houses/images/284.jpg,houses/images/184.jpg,7,Kristina,001,2020-11-20_15h07.25.929,test2,2020.2.5,MacIntel,60,,,0,6,6,6,1
,,,,z,1.261,,,,,,houses/images/285.jpg,houses/images/264.jpg,8,Kristina,001,2020-11-20_15h07.25.929,test2,2020.2.5,MacIntel,60,,,0,7,7,7,1
,,,,m,1.582,,,,,,houses/images/286.jpg,houses/images/89.jpg,9,Kristina,001,2020-11-20_15h07.25.929,test2,2020.2.5,MacIntel,60,,,0,8,8,8,1
,,,,z,2.506,,,,,,houses/images/187.jpg,houses/images/350.jpg,10,Kristina,001,2020-11-20_15h07.25.929,test2,2020.2.5,MacIntel,60,,,0,9,9,9,1
,,,,z,1.675,,,,,,houses/images/288.jpg,houses/images/267.jpg,11,Kristina,001,2020-11-20_15h07.25.929,test2,2020.2.5,MacIntel,60,,,0,10,10,10,1
,,,,m,1.613,,,,,,houses/images/289.jpg,houses/images/332.jpg,12,Kristina,001,2020-11-20_15h07.25.929,test2,2020.2.5,MacIntel,60,,,0,11,11,11,1
,,,,z,1.261,,,,,,houses/images/29.jpg,houses/images/61.jpg,13,Kristina,001,2020-11-20_15h07.25.929,test2,2020.2.5,MacIntel,60,,,0,12,12,12,1
,,,,z,1.059,,,,,,houses/images/290.jpg,houses/images/102.jpg,14,Kristina,001,2020-11-20_15h07.25.929,test2,2020.2.5,MacIntel,60,,,0,13,13,13,1
,,,,m,0.899,,,,,,houses/images/291.jpg,houses/images/220.jpg,15,Kristina,001,2020-11-20_15h07.25.929,test2,2020.2.5,MacIntel,60,,,0,14,14,14,1
,,,,z,0.943,,,,,,houses/images/292.jpg,houses/images/121.jpg,16,Kristina,001,2020-11-20_15h07.25.929,test2,2020.2.5,MacIntel,60,,,0,15,15,15,1
,,,,m,0.998,,,,,,houses/images/293.jpg,houses/images/25.jpg,17,Kristina,001,2020-11-20_15h07.25.929,test2,2020.2.5,MacIntel,60,,,0,16,16,16,1
,,,,z,0.881,,,,,,houses/images/294.jpg,houses/images/284.jpg,18,Kristina,001,2020-11-20_15h07.25.929,test2,2020.2.5,MacIntel,60,,,0,17,17,17,1
,,,,z,0.797,,,,,,houses/images/295.jpg,houses/images/273.jpg,19,Kristina,001,2020-11-20_15h07.25.929,test2,2020.2.5,MacIntel,60,,,0,18,18,18,1
,,,,z,0.971,,,,,,houses/images/296.jpg,houses/images/122.jpg,20,Kristina,001,2020-11-20_15h07.25.929,test2,2020.2.5,MacIntel,60,,,0,19,19,19,1
,,,,z,1.317,,,,,,houses/images/297.jpg,houses/images/217.jpg,21,Kristina,001,2020-11-20_15h07.25.929,test2,2020.2.5,MacIntel,60,,,0,20,20,20,1
,,,,z,1.414,,,,,,houses/images/298.jpg,houses/images/178.jpg,22,Kristina,001,2020-11-20_15h07.25.929,test2,2020.2.5,MacIntel,60,,,0,21,21,21,1
,,,,m,2.324,,,,,,houses/images/299.jpg,houses/images/43.jpg,23,Kristina,001,2020-11-20_15h07.25.929,test2,2020.2.5,MacIntel,60,,,0,22,22,22,1
,,,,m,3.311,,,,,,houses/images/3.jpg,houses/images/229.jpg,24,Kristina,001,2020-11-20_15h07.25.929,test2,2020.2.5,MacIntel,60,,,0,23,23,23,1
,,,,m,1.899,,,,,,houses/images/30.jpg,houses/images/177.jpg,25,Kristina,001,2020-11-20_15h07.25.929,test2,2020.2.5,MacIntel,60,,,0,24,24,24,1
,,,,m,1.535,,,,,,houses/images/300.jpg,houses/images/342.jpg,26,Kristina,001,2020-11-20_15h07.25.929,test2,2020.2.5,MacIntel,60,,,0,25,25,25,1
,,,,z,1.249,,,,,,houses/images/201.jpg,houses/images/57.jpg,27,Kristina,001,2020-11-20_15h07.25.929,test2,2020.2.5,MacIntel,60,,,0,26,26,26,1
,,,,z,1.582,,,,,,houses/images/302.jpg,houses/images/186.jpg,28,Kristina,001,2020-11-20_15h07.25.929,test2,2020.2.5,MacIntel,60,,,0,27,27,27,1
,,,,z,1.729,,,,,,houses/images/303.jpg,houses/images/131.jpg,29,Kristina,001,2020-11-20_15h07.25.929,test2,2020.2.5,MacIntel,60,,,0,28,28,28,1
,,,,z,1.543,,,,,,houses/images/304.jpg,houses/images/183.jpg,30,Kristina,001,2020-11-20_15h07.25.929,test2,2020.2.5,MacIntel,60,,,0,29,29,29,1
,,,,m,1.598,,,,,,houses/images/305.jpg,houses/images/200.jpg,31,Kristina,001,2020-11-20_15h07.25.929,test2,2020.2.5,MacIntel,60,,,0,30,30,30,1
,,,,m,1.912,,,,,,houses/images/306.jpg,houses/images/94.jpg,32,Kristina,001,2020-11-20_15h07.25.929,test2,2020.2.5,MacIntel,60,,,0,31,31,31,1
,,,,z,1.199,,,,,,houses/images/307.jpg,houses/images/96.jpg,33,Kristina,001,2020-11-20_15h07.25.929,test2,2020.2.5,MacIntel,60,,,0,32,32,32,1
,,,,z,1.892,,,,,,houses/images/308.jpg,houses/images/76.jpg,34,Kristina,001,2020-11-20_15h07.25.929,test2,2020.2.5,MacIntel,60,,,0,33,33,33,1
,,,,m,1.067,,,,,,houses/images/309.jpg,houses/images/78.jpg,35,Kristina,001,2020-11-20_15h07.25.929,test2,2020.2.5,MacIntel,60,,,0,34,34,34,1
,,,,m,3.444,,,,,,houses/images/31.jpg,houses/images/76.jpg,36,Kristina,001,2020-11-20_15h07.25.929,test2,2020.2.5,MacIntel,60,,,0,35,35,35,1
,,,,m,1.155,,,,,,houses/images/310.jpg,houses/images/128.jpg,37,Kristina,001,2020-11-20_15h07.25.929,test2,2020.2.5,MacIntel,60,,,0,36,36,36,1
,,,,z,0.894,,,,,,houses/images/311.jpg,houses/images/190.jpg,38,Kristina,001,2020-11-20_15h07.25.929,test2,2020.2.5,MacIntel,60,,,0,37,37,37,1
,,,,m,0.824,,,,,,houses/images/312.jpg,houses/images/5.jpg,39,Kristina,001,2020-11-20_15h07.25.929,test2,2020.2.5,MacIntel,60,,,0,38,38,38,1
,,,,m,1.162,,,,,,houses/images/313.jpg,houses/images/188.jpg,40,Kristina,001,2020-11-20_15h07.25.929,test2,2020.2.5,MacIntel,60,,,0,39,39,39,1
,,,,m,1.203,,,,,,houses/images/314.jpg,houses/images/342.jpg,41,Kristina,001,2020-11-20_15h07.25.929,test2,2020.2.5,MacIntel,60,,,0,40,40,40,1
,,,,m,1.298,,,,,,houses/images/315.jpg,houses/images/288.jpg,42,Kristina,001,2020-11-20_15h07.25.929,test2,2020.2.5,MacIntel,60,,,0,41,41,41,1
,,,,m,1.026,,,,,,houses/images/316.jpg,houses/images/321.jpg,43,Kristina,001,2020-11-20_15h07.25.929,test2,2020.2.5,MacIntel,60,,,0,42,42,42,1
,,,,z,1.682,,,,,,houses/images/317.jpg,houses/images/82.jpg,44,Kristina,001,2020-11-20_15h07.25.929,test2,2020.2.5,MacIntel,60,,,0,43,43,43,1
,,,,z,1.508,,,,,,houses/images/318.jpg,houses/images/169.jpg,45,Kristina,001,2020-11-20_15h07.25.929,test2,2020.2.5,MacIntel,60,,,0,44,44,44,1
,,,,z,0.935,,,,,,houses/images/319.jpg,houses/images/224.jpg,46,Kristina,001,2020-11-20_15h07.25.929,test2,2020.2.5,MacIntel,60,,,0,45,45,45,1
,,,,m,0.919,,,,,,houses/images/32.jpg,houses/images/175.jpg,47,Kristina,001,2020-11-20_15h07.25.929,test2,2020.2.5,MacIntel,60,,,0,46,46,46,1
,,,,z,0.891,,,,,,houses/images/320.jpg,houses/images/247.jpg,48,Kristina,001,2020-11-20_15h07.25.929,test2,2020.2.5,MacIntel,60,,,0,47,47,47,1
,,,,z,1.088,,,,,,houses/images/321.jpg,houses/images/97.jpg,49,Kristina,001,2020-11-20_15h07.25.929,test2,2020.2.5,MacIntel,60,,,0,48,48,48,1
,,,,m,1.264,,,,,,houses/images/322.jpg,houses/images/74.jpg,50,Kristina,001,2020-11-20_15h07.25.929,test2,2020.2.5,MacIntel,60,,,0,49,49,49,1
,,,,z,1.232,,,,,,houses/images/323.jpg,houses/images/148.jpg,51,Kristina,001,2020-11-20_15h07.25.929,test2,2020.2.5,MacIntel,60,,,0,50,50,50,1
,,,,m,0.911,,,,,,houses/images/324.jpg,houses/images/313.jpg,52,Kristina,001,2020-11-20_15h07.25.929,test2,2020.2.5,MacIntel,60,,,0,51,51,51,1
,,,,m,1.198,,,,,,houses/images/325.jpg,houses/images/11.jpg,53,Kristina,001,2020-11-20_15h07.25.929,test2,2020.2.5,MacIntel,60,,,0,52,52,52,1
,,,,m,1.003,,,,,,houses/images/326.jpg,houses/images/21.jpg,54,Kristina,001,2020-11-20_15h07.25.929,test2,2020.2.5,MacIntel,60,,,0,53,53,53,1
,,,,z,0.946,,,,,,houses/images/327.jpg,houses/images/281.jpg,55,Kristina,001,2020-11-20_15h07.25.929,test2,2020.2.5,MacIntel,60,,,0,54,54,54,1
,,,,z,0.915,,,,,,houses/images/328.jpg,houses/images/172.jpg,56,Kristina,001,2020-11-20_15h07.25.929,test2,2020.2.5,MacIntel,60,,,0,55,55,55,1
,,,,z,1.424,,,,,,houses/images/329.jpg,houses/images/273.jpg,57,Kristina,001,2020-11-20_15h07.25.929,test2,2020.2.5,MacIntel,60,,,0,56,56,56,1
,,,,m,0.892,,,,,,houses/images/33.jpg,houses/images/239.jpg,58,Kristina,001,2020-11-20_15h07.25.929,test2,2020.2.5,MacIntel,60,,,0,57,57,57,1
,,,,m,1.136,,,,,,houses/images/330.jpg,houses/images/333.jpg,59,Kristina,001,2020-11-20_15h07.25.929,test2,2020.2.5,MacIntel,60,,,0,58,58,58,1
,,,,m,0.845,,,,,,houses/images/331.jpg,houses/images/361.jpg,60,Kristina,001,2020-11-20_15h07.25.929,test2,2020.2.5,MacIntel,60,,,0,59,59,59,1
,,,,z,0.85,,,,,,houses/images/332.jpg,houses/images/91.jpg,61,Kristina,001,2020-11-20_15h07.25.929,test2,2020.2.5,MacIntel,60,,,0,60,60,60,1
,,,,m,0.964,,,,,,houses/images/333.jpg,houses/images/158.jpg,62,Kristina,001,2020-11-20_15h07.25.929,test2,2020.2.5,MacIntel,60,,,0,61,61,61,1
,,,,m,1.24,,,,,,houses/images/334.jpg,houses/images/10.jpg,63,Kristina,001,2020-11-20_15h07.25.929,test2,2020.2.5,MacIntel,60,,,0,62,62,62,1
,,,,m,0.896,,,,,,houses/images/335.jpg,houses/images/331.jpg,64,Kristina,001,2020-11-20_15h07.25.929,test2,2020.2.5,MacIntel,60,,,0,63,63,63,1
,,,,z,1.661,,,,,,houses/images/336.jpg,houses/images/171.jpg,65,Kristina,001,2020-11-20_15h07.25.929,test2,2020.2.5,MacIntel,60,,,0,64,64,64,1
,,,,m,1.074,,,,,,houses/images/337.jpg,houses/images/226.jpg,66,Kristina,001,2020-11-20_15h07.25.929,test2,2020.2.5,MacIntel,60,,,0,65,65,65,1
,,,,z,0.829,,,,,,houses/images/238.jpg,houses/images/214.jpg,67,Kristina,001,2020-11-20_15h07.25.929,test2,2020.2.5,MacIntel,60,,,0,66,66,66,1
,,,,z,1.473,,,,,,houses/images/239.jpg,houses/images/130.jpg,68,Kristina,001,2020-11-20_15h07.25.929,test2,2020.2.5,MacIntel,60,,,0,67,67,67,1
,,,,z,1.54,,,,,,houses/images/34.jpg,houses/images/85.jpg,69,Kristina,001,2020-11-20_15h07.25.929,test2,2020.2.5,MacIntel,60,,,0,68,68,68,1
,,,,z,1.361,,,,,,houses/images/340.jpg,houses/images/248.jpg,70,Kristina,001,2020-11-20_15h07.25.929,test2,2020.2.5,MacIntel,60,,,0,69,69,69,1
,,,,m,1.182,,,,,,houses/images/341.jpg,houses/images/215.jpg,71,Kristina,001,2020-11-20_15h07.25.929,test2,2020.2.5,MacIntel,60,,,0,70,70,70,1
,,,,z,0.931,,,,,,houses/images/342.jpg,houses/images/155.jpg,72,Kristina,001,2020-11-20_15h07.25.929,test2,2020.2.5,MacIntel,60,,,0,71,71,71,1
,,,,m,1.038,,,,,,houses/images/343.jpg,houses/images/193.jpg,73,Kristina,001,2020-11-20_15h07.25.929,test2,2020.2.5,MacIntel,60,,,0,72,72,72,1
,,,,z,0.827,,,,,,houses/images/344.jpg,houses/images/324.jpg,74,Kristina,001,2020-11-20_15h07.25.929,test2,2020.2.5,MacIntel,60,,,0,73,73,73,1
,,,,m,0.912,,,,,,houses/images/345.jpg,houses/images/86.jpg,75,Kristina,001,2020-11-20_15h07.25.929,test2,2020.2.5,MacIntel,60,,,0,74,74,74,1
,,,,z,2.344,,,,,,houses/images/246.jpg,houses/images/295.jpg,76,Kristina,001,2020-11-20_15h07.25.929,test2,2020.2.5,MacIntel,60,,,0,75,75,75,1
,,,,m,0.891,,,,,,houses/images/347.jpg,houses/images/292.jpg,77,Kristina,001,2020-11-20_15h07.25.929,test2,2020.2.5,MacIntel,60,,,0,76,76,76,1
,,,,z,1.063,,,,,,houses/images/348.jpg,houses/images/55.jpg,78,Kristina,001,2020-11-20_15h07.25.929,test2,2020.2.5,MacIntel,60,,,0,77,77,77,1
,,,,m,1.137,,,,,,houses/images/349.jpg,houses/images/1.jpg,79,Kristina,001,2020-11-20_15h07.25.929,test2,2020.2.5,MacIntel,60,,,0,78,78,78,1
,,,,z,0.973,,,,,,houses/images/35.jpg,houses/images/73.jpg,80,Kristina,001,2020-11-20_15h07.25.929,test2,2020.2.5,MacIntel,60,,,0,79,79,79,1
,,,,m,0.82,,,,,,houses/images/350.jpg,houses/images/44.jpg,81,Kristina,001,2020-11-20_15h07.25.929,test2,2020.2.5,MacIntel,60,,,0,80,80,80,1
,,,,z,0.813,,,,,,houses/images/351.jpg,houses/images/6.jpg,82,Kristina,001,2020-11-20_15h07.25.929,test2,2020.2.5,MacIntel,60,,,0,81,81,81,1
,,,,m,1.177,,,,,,houses/images/352.jpg,houses/images/20.jpg,83,Kristina,001,2020-11-20_15h07.25.929,test2,2020.2.5,MacIntel,60,,,0,82,82,82,1
,,,,m,1.142,,,,,,houses/images/353.jpg,houses/images/18.jpg,84,Kristina,001,2020-11-20_15h07.25.929,test2,2020.2.5,MacIntel,60,,,0,83,83,83,1
,,,,m,1.293,,,,,,houses/images/354.jpg,houses/images/347.jpg,85,Kristina,001,2020-11-20_15h07.25.929,test2,2020.2.5,MacIntel,60,,,0,84,84,84,1
,,,,z,1.411,,,,,,houses/images/355.jpg,houses/images/27.jpg,86,Kristina,001,2020-11-20_15h07.25.929,test2,2020.2.5,MacIntel,60,,,0,85,85,85,1
,,,,m,1.199,,,,,,houses/images/356.jpg,houses/images/276.jpg,87,Kristina,001,2020-11-20_15h07.25.929,test2,2020.2.5,MacIntel,60,,,0,86,86,86,1
,,,,z,1.289,,,,,,houses/images/357.jpg,houses/images/345.jpg,88,Kristina,001,2020-11-20_15h07.25.929,test2,2020.2.5,MacIntel,60,,,0,87,87,87,1
,,,,m,0.976,,,,,,houses/images/358.jpg,houses/images/235.jpg,89,Kristina,001,2020-11-20_15h07.25.929,test2,2020.2.5,MacIntel,60,,,0,88,88,88,1
,,,,z,1.118,,,,,,houses/images/359.jpg,houses/images/115.jpg,90,Kristina,001,2020-11-20_15h07.25.929,test2,2020.2.5,MacIntel,60,,,0,89,89,89,1
,,,,m,0.902,,,,,,houses/images/36.jpg,houses/images/310.jpg,91,Kristina,001,2020-11-20_15h07.25.929,test2,2020.2.5,MacIntel,60,,,0,90,90,90,1
,,,,z,0.752,,,,,,houses/images/360.jpg,houses/images/93.jpg,92,Kristina,001,2020-11-20_15h07.25.929,test2,2020.2.5,MacIntel,60,,,0,91,91,91,1
,,,,z,0.559,,,,,,houses/images/361.jpg,houses/images/212.jpg,93,Kristina,001,2020-11-20_15h07.25.929,test2,2020.2.5,MacIntel,60,,,0,92,92,92,1
,,,,z,1.082,,,,,,houses/images/62.jpg,houses/images/51.jpg,94,Kristina,001,2020-11-20_15h07.25.929,test2,2020.2.5,MacIntel,60,,,0,93,93,93,1
,,,,m,1.808,,,,,,houses/images/37.jpg,houses/images/108.jpg,95,Kristina,001,2020-11-20_15h07.25.929,test2,2020.2.5,MacIntel,60,,,0,94,94,94,1
,,,,m,1.148,,,,,,houses/images/38.jpg,houses/images/127.jpg,96,Kristina,001,2020-11-20_15h07.25.929,test2,2020.2.5,MacIntel,60,,,0,95,95,95,1
,,,,z,1.936,,,,,,houses/images/39.jpg,houses/images/52.jpg,97,Kristina,001,2020-11-20_15h07.25.929,test2,2020.2.5,MacIntel,60,,,0,96,96,96,1
,,,,m,0.923,,,,,,houses/images/4.jpg,houses/images/318.jpg,98,Kristina,001,2020-11-20_15h07.25.929,test2,2020.2.5,MacIntel,60,,,0,97,97,97,1
,,,,m,1.259,,,,,,houses/images/40.jpg,houses/images/201.jpg,99,Kristina,001,2020-11-20_15h07.25.929,test2,2020.2.5,MacIntel,60,,,0,98,98,98,1
,,,,m,1.324,,,,,,houses/images/41.jpg,houses/images/7.jpg,100,Kristina,001,2020-11-20_15h07.25.929,test2,2020.2.5,MacIntel,60,,,0,99,99,99,1
,,,,z,1.143,,,,,,houses/images/42.jpg,houses/images/340.jpg,101,Kristina,001,2020-11-20_15h07.25.929,test2,2020.2.5,MacIntel,60,,,0,100,100,100,1
,,,,z,2.367,,,,,,houses/images/43.jpg,houses/images/150.jpg,102,Kristina,001,2020-11-20_15h07.25.929,test2,2020.2.5,MacIntel,60,,,0,101,101,101,1
,,,,z,1.583,,,,,,houses/images/44.jpg,houses/images/246.jpg,103,Kristina,001,2020-11-20_15h07.25.929,test2,2020.2.5,MacIntel,60,,,0,102,102,102,1
,,,,m,0.898,,,,,,houses/images/145.jpg,houses/images/18.jpg,104,Kristina,001,2020-11-20_15h07.25.929,test2,2020.2.5,MacIntel,60,,,0,103,103,103,1
,,,,z,1,,,,,,houses/images/46.jpg,houses/images/211.jpg,105,Kristina,001,2020-11-20_15h07.25.929,test2,2020.2.5,MacIntel,60,,,0,104,104,104,1
,,,,m,1.866,,,,,,houses/images/47.jpg,houses/images/282.jpg,106,Kristina,001,2020-11-20_15h07.25.929,test2,2020.2.5,MacIntel,60,,,0,105,105,105,1
,,,,z,1.031,,,,,,houses/images/48.jpg,houses/images/145.jpg,107,Kristina,001,2020-11-20_15h07.25.929,test2,2020.2.5,MacIntel,60,,,0,106,106,106,1
,,,,z,1.05,,,,,,houses/images/49.jpg,houses/images/135.jpg,108,Kristina,001,2020-11-20_15h07.25.929,test2,2020.2.5,MacIntel,60,,,0,107,107,107,1
,,,,m,1.157,,,,,,houses/images/5.jpg,houses/images/59.jpg,109,Kristina,001,2020-11-20_15h07.25.929,test2,2020.2.5,MacIntel,60,,,0,108,108,108,1
,,,,m,1.135,,,,,,houses/images/50.jpg,houses/images/164.jpg,110,Kristina,001,2020-11-20_15h07.25.929,test2,2020.2.5,MacIntel,60,,,0,109,109,109,1
,,,,m,1.348,,,,,,houses/images/51.jpg,houses/images/42.jpg,111,Kristina,001,2020-11-20_15h07.25.929,test2,2020.2.5,MacIntel,60,,,0,110,110,110,1
,,,,z,1.513,,,,,,houses/images/52.jpg,houses/images/32.jpg,112,Kristina,001,2020-11-20_15h07.25.929,test2,2020.2.5,MacIntel,60,,,0,111,111,111,1
,,,,m,1.094,,,,,,houses/images/53.jpg,houses/images/357.jpg,113,Kristina,001,2020-11-20_15h07.25.929,test2,2020.2.5,MacIntel,60,,,0,112,112,112,1
,,,,z,1.627,,,,,,houses/images/54.jpg,houses/images/305.jpg,114,Kristina,001,2020-11-20_15h07.25.929,test2,2020.2.5,MacIntel,60,,,0,113,113,113,1
,,,,z,1.202,,,,,,houses/images/55.jpg,houses/images/352.jpg,115,Kristina,001,2020-11-20_15h07.25.929,test2,2020.2.5,MacIntel,60,,,0,114,114,114,1
,,,,z,1.009,,,,,,houses/images/56.jpg,houses/images/273.jpg,116,Kristina,001,2020-11-20_15h07.25.929,test2,2020.2.5,MacIntel,60,,,0,115,115,115,1
,,,,m,0.897,,,,,,houses/images/57.jpg,houses/images/143.jpg,117,Kristina,001,2020-11-20_15h07.25.929,test2,2020.2.5,MacIntel,60,,,0,116,116,116,1
,,,,z,1.172,,,,,,houses/images/58.jpg,houses/images/95.jpg,118,Kristina,001,2020-11-20_15h07.25.929,test2,2020.2.5,MacIntel,60,,,0,117,117,117,1
,,,,z,0.972,,,,,,houses/images/59.jpg,houses/images/244.jpg,119,Kristina,001,2020-11-20_15h07.25.929,test2,2020.2.5,MacIntel,60,,,0,118,118,118,1
,,,,m,1.739,,,,,,houses/images/6.jpg,houses/images/202.jpg,120,Kristina,001,2020-11-20_15h07.25.929,test2,2020.2.5,MacIntel,60,,,0,119,119,119,1
,,,,z,1.416,,,,,,houses/images/60.jpg,houses/images/203.jpg,121,Kristina,001,2020-11-20_15h07.25.929,test2,2020.2.5,MacIntel,60,,,0,120,120,120,1
,,,,m,1.586,,,,,,houses/images/61.jpg,houses/images/123.jpg,122,Kristina,001,2020-11-20_15h07.25.929,test2,2020.2.5,MacIntel,60,,,0,121,121,121,1
,,,,z,0.864,,,,,,houses/images/62.jpg,houses/images/353.jpg,123,Kristina,001,2020-11-20_15h07.25.929,test2,2020.2.5,MacIntel,60,,,0,122,122,122,1
,,,,z,0.905,,,,,,houses/images/63.jpg,houses/images/281.jpg,124,Kristina,001,2020-11-20_15h07.25.929,test2,2020.2.5,MacIntel,60,,,0,123,123,123,1
,,,,m,1.165,,,,,,houses/images/64.jpg,houses/images/280.jpg,125,Kristina,001,2020-11-20_15h07.25.929,test2,2020.2.5,MacIntel,60,,,0,124,124,124,1
,,,,z,1.254,,,,,,houses/images/65.jpg,houses/images/309.jpg,126,Kristina,001,2020-11-20_15h07.25.929,test2,2020.2.5,MacIntel,60,,,0,125,125,125,1
,,,,z,0.979,,,,,,houses/images/66.jpg,houses/images/302.jpg,127,Kristina,001,2020-11-20_15h07.25.929,test2,2020.2.5,MacIntel,60,,,0,126,126,126,1
,,,,z,1.219,,,,,,houses/images/67.jpg,houses/images/300.jpg,128,Kristina,001,2020-11-20_15h07.25.929,test2,2020.2.5,MacIntel,60,,,0,127,127,127,1
,,,,z,1.575,,,,,,houses/images/68.jpg,houses/images/328.jpg,129,Kristina,001,2020-11-20_15h07.25.929,test2,2020.2.5,MacIntel,60,,,0,128,128,128,1
,,,,z,1.067,,,,,,houses/images/69.jpg,houses/images/114.jpg,130,Kristina,001,2020-11-20_15h07.25.929,test2,2020.2.5,MacIntel,60,,,0,129,129,129,1
,,,,z,1.332,,,,,,houses/images/7.jpg,houses/images/31.jpg,131,Kristina,001,2020-11-20_15h07.25.929,test2,2020.2.5,MacIntel,60,,,0,130,130,130,1
,,,,m,1.268,,,,,,houses/images/70.jpg,houses/images/54.jpg,132,Kristina,001,2020-11-20_15h07.25.929,test2,2020.2.5,MacIntel,60,,,0,131,131,131,1
,,,,m,1.128,,,,,,houses/images/71.jpg,houses/images/293.jpg,133,Kristina,001,2020-11-20_15h07.25.929,test2,2020.2.5,MacIntel,60,,,0,132,132,132,1
,,,,z,0.843,,,,,,houses/images/72.jpg,houses/images/37.jpg,134,Kristina,001,2020-11-20_15h07.25.929,test2,2020.2.5,MacIntel,60,,,0,133,133,133,1
,,,,m,2.917,,,,,,houses/images/73.jpg,houses/images/230.jpg,135,Kristina,001,2020-11-20_15h07.25.929,test2,2020.2.5,MacIntel,60,,,0,134,134,134,1
,,,,z,1.562,,,,,,houses/images/74.jpg,houses/images/88.jpg,136,Kristina,001,2020-11-20_15h07.25.929,test2,2020.2.5,MacIntel,60,,,0,135,135,135,1
,,,,z,1.328,,,,,,houses/images/75.jpg,houses/images/161.jpg,137,Kristina,001,2020-11-20_15h07.25.929,test2,2020.2.5,MacIntel,60,,,0,136,136,136,1
,,,,m,2.262,,,,,,houses/images/76.jpg,houses/images/354.jpg,138,Kristina,001,2020-11-20_15h07.25.929,test2,2020.2.5,MacIntel,60,,,0,137,137,137,1
,,,,m,1.208,,,,,,houses/images/77.jpg,houses/images/251.jpg,139,Kristina,001,2020-11-20_15h07.25.929,test2,2020.2.5,MacIntel,60,,,0,138,138,138,1
,,,,m,1.13,,,,,,houses/images/78.jpg,houses/images/143.jpg,140,Kristina,001,2020-11-20_15h07.25.929,test2,2020.2.5,MacIntel,60,,,0,139,139,139,1
,,,,m,1.459,,,,,,houses/images/79.jpg,houses/images/335.jpg,141,Kristina,001,2020-11-20_15h07.25.929,test2,2020.2.5,MacIntel,60,,,0,140,140,140,1
,,,,z,1.121,,,,,,houses/images/8.jpg,houses/images/231.jpg,142,Kristina,001,2020-11-20_15h07.25.929,test2,2020.2.5,MacIntel,60,,,0,141,141,141,1
,,,,m,1.132,,,,,,houses/images/80.jpg,houses/images/69.jpg,143,Kristina,001,2020-11-20_15h07.25.929,test2,2020.2.5,MacIntel,60,,,0,142,142,142,1
,,,,z,1.313,,,,,,houses/images/81.jpg,houses/images/92.jpg,144,Kristina,001,2020-11-20_15h07.25.929,test2,2020.2.5,MacIntel,60,,,0,143,143,143,1
,,,,z,1.044,,,,,,houses/images/82.jpg,houses/images/221.jpg,145,Kristina,001,2020-11-20_15h07.25.929,test2,2020.2.5,MacIntel,60,,,0,144,144,144,1
,,,,m,0.893,,,,,,houses/images/83.jpg,houses/images/196.jpg,146,Kristina,001,2020-11-20_15h07.25.929,test2,2020.2.5,MacIntel,60,,,0,145,145,145,1
,,,,m,3.259,,,,,,houses/images/84.jpg,houses/images/53.jpg,147,Kristina,001,2020-11-20_15h07.25.929,test2,2020.2.5,MacIntel,60,,,0,146,146,146,1
,,,,m,1.17,,,,,,houses/images/85.jpg,houses/images/166.jpg,148,Kristina,001,2020-11-20_15h07.25.929,test2,2020.2.5,MacIntel,60,,,0,147,147,147,1
,,,,z,1.093,,,,,,houses/images/86.jpg,houses/images/266.jpg,149,Kristina,001,2020-11-20_15h07.25.929,test2,2020.2.5,MacIntel,60,,,0,148,148,148,1
,,,,m,1.759,,,,,,houses/images/87.jpg,houses/images/355.jpg,150,Kristina,001,2020-11-20_15h07.25.929,test2,2020.2.5,MacIntel,60,,,0,149,149,149,1
,,,,z,1.196,,,,,,houses/images/88.jpg,houses/images/206.jpg,151,Kristina,001,2020-11-20_15h07.25.929,test2,2020.2.5,MacIntel,60,,,0,150,150,150,1
,,,,m,1.063,,,,,,houses/images/89.jpg,houses/images/241.jpg,152,Kristina,001,2020-11-20_15h07.25.929,test2,2020.2.5,MacIntel,60,,,0,151,151,151,1
,,,,m,0.846,,,,,,houses/images/9.jpg,houses/images/147.jpg,153,Kristina,001,2020-11-20_15h07.25.929,test2,2020.2.5,MacIntel,60,,,0,152,152,152,1
,,,,m,1.168,,,,,,houses/images/90.jpg,houses/images/117.jpg,154,Kristina,001,2020-11-20_15h07.25.929,test2,2020.2.5,MacIntel,60,,,0,153,153,153,1
,,,,m,1.8,,,,,,houses/images/91.jpg,houses/images/34.jpg,155,Kristina,001,2020-11-20_15h07.25.929,test2,2020.2.5,MacIntel,60,,,0,154,154,154,1
,,,,m,1.591,,,,,,houses/images/92.jpg,houses/images/105.jpg,156,Kristina,001,2020-11-20_15h07.25.929,test2,2020.2.5,MacIntel,60,,,0,155,155,155,1
,,,,m,1.414,,,,,,houses/images/93.jpg,houses/images/249.jpg,157,Kristina,001,2020-11-20_15h07.25.929,test2,2020.2.5,MacIntel,60,,,0,156,156,156,1
,,,,m,1.543,,,,,,houses/images/94.jpg,houses/images/265.jpg,158,Kristina,001,2020-11-20_15h07.25.929,test2,2020.2.5,MacIntel,60,,,0,157,157,157,1
,,,,m,1.03,,,,,,houses/images/95.jpg,houses/images/65.jpg,159,Kristina,001,2020-11-20_15h07.25.929,test2,2020.2.5,MacIntel,60,,,0,158,158,158,1
,,,,m,0.966,,,,,,houses/images/96.jpg,houses/images/83.jpg,160,Kristina,001,2020-11-20_15h07.25.929,test2,2020.2.5,MacIntel,60,,,0,159,159,159,1
,,,,z,0.924,,,,,,houses/images/97.jpg,houses/images/165.jpg,161,Kristina,001,2020-11-20_15h07.25.929,test2,2020.2.5,MacIntel,60,,,0,160,160,160,1
,,,,m,1.517,,,,,,houses/images/98.jpg,houses/images/280.jpg,162,Kristina,001,2020-11-20_15h07.25.929,test2,2020.2.5,MacIntel,60,,,0,161,161,161,1
,,,,m,1.324,,,,,,houses/images/199.jpg,houses/images/278.jpg,163,Kristina,001,2020-11-20_15h07.25.929,test2,2020.2.5,MacIntel,60,,,0,162,162,162,1
,,,,z,1.706,,,,,,houses/images/0.jpg,houses/images/297.jpg,164,Kristina,001,2020-11-20_15h07.25.929,test2,2020.2.5,MacIntel,60,,,0,163,163,163,1
,,,,m,1.656,,,,,,houses/images/1.jpg,houses/images/225.jpg,165,Kristina,001,2020-11-20_15h07.25.929,test2,2020.2.5,MacIntel,60,,,0,164,164,164,1
,,,,m,1.176,,,,,,houses/images/10.jpg,houses/images/41.jpg,166,Kristina,001,2020-11-20_15h07.25.929,test2,2020.2.5,MacIntel,60,,,0,165,165,165,1
,,,,z,0.989,,,,,,houses/images/100.jpg,houses/images/19.jpg,167,Kristina,001,2020-11-20_15h07.25.929,test2,2020.2.5,MacIntel,60,,,0,166,166,166,1
,,,,m,1.013,,,,,,houses/images/101.jpg,houses/images/189.jpg,168,Kristina,001,2020-11-20_15h07.25.929,test2,2020.2.5,MacIntel,60,,,0,167,167,167,1
,,,,m,1.807,,,,,,houses/images/102.jpg,houses/images/141.jpg,169,Kristina,001,2020-11-20_15h07.25.929,test2,2020.2.5,MacIntel,60,,,0,168,168,168,1
,,,,m,1.232,,,,,,houses/images/103.jpg,houses/images/212.jpg,170,Kristina,001,2020-11-20_15h07.25.929,test2,2020.2.5,MacIntel,60,,,0,169,169,169,1
,,,,m,1.167,,,,,,houses/images/104.jpg,houses/images/134.jpg,171,Kristina,001,2020-11-20_15h07.25.929,test2,2020.2.5,MacIntel,60,,,0,170,170,170,1
,,,,z,1.425,,,,,,houses/images/105.jpg,houses/images/13.jpg,172,Kristina,001,2020-11-20_15h07.25.929,test2,2020.2.5,MacIntel,60,,,0,171,171,171,1
,,,,m,1.946,,,,,,houses/images/106.jpg,houses/images/258.jpg,173,Kristina,001,2020-11-20_15h07.25.929,test2,2020.2.5,MacIntel,60,,,0,172,172,172,1
,,,,z,1.112,,,,,,houses/images/107.jpg,houses/images/14.jpg,174,Kristina,001,2020-11-20_15h07.25.929,test2,2020.2.5,MacIntel,60,,,0,173,173,173,1
,,,,m,1.292,,,,,,houses/images/108.jpg,houses/images/9.jpg,175,Kristina,001,2020-11-20_15h07.25.929,test2,2020.2.5,MacIntel,60,,,0,174,174,174,1
,,,,z,1.543,,,,,,houses/images/109.jpg,houses/images/106.jpg,176,Kristina,001,2020-11-20_15h07.25.929,test2,2020.2.5,MacIntel,60,,,0,175,175,175,1
,,,,z,0.971,,,,,,houses/images/11.jpg,houses/images/268.jpg,177,Kristina,001,2020-11-20_15h07.25.929,test2,2020.2.5,MacIntel,60,,,0,176,176,176,1
,,,,z,1.163,,,,,,houses/images/210.jpg,houses/images/330.jpg,178,Kristina,001,2020-11-20_15h07.25.929,test2,2020.2.5,MacIntel,60,,,0,177,177,177,1
,,,,m,1.083,,,,,,houses/images/111.jpg,houses/images/343.jpg,179,Kristina,001,2020-11-20_15h07.25.929,test2,2020.2.5,MacIntel,60,,,0,178,178,178,1
,,,,m,1.823,,,,,,houses/images/112.jpg,houses/images/225.jpg,180,Kristina,001,2020-11-20_15h07.25.929,test2,2020.2.5,MacIntel,60,,,0,179,179,179,1
,,,,m,0.85,,,,,,houses/images/113.jpg,houses/images/174.jpg,181,Kristina,001,2020-11-20_15h07.25.929,test2,2020.2.5,MacIntel,60,,,0,180,180,180,1
,,,,m,1.025,,,,,,houses/images/114.jpg,houses/images/25.jpg,182,Kristina,001,2020-11-20_15h07.25.929,test2,2020.2.5,MacIntel,60,,,0,181,181,181,1
,,,,z,1.386,,,,,,houses/images/115.jpg,houses/images/100.jpg,183,Kristina,001,2020-11-20_15h07.25.929,test2,2020.2.5,MacIntel,60,,,0,182,182,182,1
,,,,m,0.942,,,,,,houses/images/116.jpg,houses/images/48.jpg,184,Kristina,001,2020-11-20_15h07.25.929,test2,2020.2.5,MacIntel,60,,,0,183,183,183,1
,,,,m,0.974,,,,,,houses/images/117.jpg,houses/images/296.jpg,185,Kristina,001,2020-11-20_15h07.25.929,test2,2020.2.5,MacIntel,60,,,0,184,184,184,1
,,,,z,1.106,,,,,,houses/images/118.jpg,houses/images/15.jpg,186,Kristina,001,2020-11-20_15h07.25.929,test2,2020.2.5,MacIntel,60,,,0,185,185,185,1
,,,,m,1.982,,,,,,houses/images/119.jpg,houses/images/252.jpg,187,Kristina,001,2020-11-20_15h07.25.929,test2,2020.2.5,MacIntel,60,,,0,186,186,186,1
,,,,z,1.747,,,,,,houses/images/12.jpg,houses/images/290.jpg,188,Kristina,001,2020-11-20_15h07.25.929,test2,2020.2.5,MacIntel,60,,,0,187,187,187,1
,,,,m,1.798,,,,,,houses/images/120.jpg,houses/images/236.jpg,189,Kristina,001,2020-11-20_15h07.25.929,test2,2020.2.5,MacIntel,60,,,0,188,188,188,1
,,,,m,2.261,,,,,,houses/images/121.jpg,houses/images/260.jpg,190,Kristina,001,2020-11-20_15h07.25.929,test2,2020.2.5,MacIntel,60,,,0,189,189,189,1
,,,,m,1.026,,,,,,houses/images/122.jpg,houses/images/56.jpg,191,Kristina,001,2020-11-20_15h07.25.929,test2,2020.2.5,MacIntel,60,,,0,190,190,190,1
,,,,z,1.726,,,,,,houses/images/123.jpg,houses/images/336.jpg,192,Kristina,001,2020-11-20_15h07.25.929,test2,2020.2.5,MacIntel,60,,,0,191,191,191,1
,,,,z,1.852,,,,,,houses/images/124.jpg,houses/images/39.jpg,193,Kristina,001,2020-11-20_15h07.25.929,test2,2020.2.5,MacIntel,60,,,0,192,192,192,1
,,,,z,1.993,,,,,,houses/images/225.jpg,houses/images/302.jpg,194,Kristina,001,2020-11-20_15h07.25.929,test2,2020.2.5,MacIntel,60,,,0,193,193,193,1
,,,,z,1.662,,,,,,houses/images/226.jpg,houses/images/207.jpg,195,Kristina,001,2020-11-20_15h07.25.929,test2,2020.2.5,MacIntel,60,,,0,194,194,194,1
,,,,z,0.964,,,,,,houses/images/127.jpg,houses/images/348.jpg,196,Kristina,001,2020-11-20_15h07.25.929,test2,2020.2.5,MacIntel,60,,,0,195,195,195,1
,,,,z,1.029,,,,,,houses/images/128.jpg,houses/images/151.jpg,197,Kristina,001,2020-11-20_15h07.25.929,test2,2020.2.5,MacIntel,60,,,0,196,196,196,1
,,,,z,1.178,,,,,,houses/images/129.jpg,houses/images/315.jpg,198,Kristina,001,2020-11-20_15h07.25.929,test2,2020.2.5,MacIntel,60,,,0,197,197,197,1
,,,,m,1.028,,,,,,houses/images/13.jpg,houses/images/63.jpg,199,Kristina,001,2020-11-20_15h07.25.929,test2,2020.2.5,MacIntel,60,,,0,198,198,198,1
,,,,z,1.186,,,,,,houses/images/307.jpg,houses/images/172.jpg,200,Kristina,001,2020-11-20_15h07.25.929,test2,2020.2.5,MacIntel,60,,,0,199,199,199,1
