key_resp.keys,key_resp.rt,key_resp_3.keys,key_resp_3.rt,key_resp_2.keys,key_resp_2.rt,trials.thisRepN,trials.thisTrialN,trials.thisN,trials.thisIndex,trials.ran,image_left,image_right,trial_num,participant,session,date,expName,psychopyVersion,OS,frameRate,key_resp_4.keys,key_resp_4.rt,trials_2.thisRepN,trials_2.thisTrialN,trials_2.thisN,trials_2.thisIndex,trials_2.ran
space,2.150555,space,0.13672,m,3.38295,0,0,0,0,1,houses/images/0.jpg,houses/images/349.jpg,1,Maggie ,001,2020-11-20_17h34.34.492,test2,2020.2.5,MacIntel,60,,,,,,,
,,,,m,1.229665,0,1,1,1,1,houses/images/1.jpg,houses/images/194.jpg,2,Maggie ,001,2020-11-20_17h34.34.492,test2,2020.2.5,MacIntel,60,,,,,,,
,,,,z,2.28455,0,2,2,2,1,houses/images/10.jpg,houses/images/159.jpg,3,Maggie ,001,2020-11-20_17h34.34.492,test2,2020.2.5,MacIntel,60,,,,,,,
,,,,m,1.144285,0,3,3,3,1,houses/images/100.jpg,houses/images/42.jpg,4,Maggie ,001,2020-11-20_17h34.34.492,test2,2020.2.5,MacIntel,60,,,,,,,
,,,,z,0.83121,0,4,4,4,1,houses/images/101.jpg,houses/images/240.jpg,5,Maggie ,001,2020-11-20_17h34.34.492,test2,2020.2.5,MacIntel,60,,,,,,,
,,,,m,0.83415,0,5,5,5,1,houses/images/102.jpg,houses/images/201.jpg,6,Maggie ,001,2020-11-20_17h34.34.492,test2,2020.2.5,MacIntel,60,,,,,,,
,,,,z,0.685405,0,6,6,6,1,houses/images/103.jpg,houses/images/223.jpg,7,Maggie ,001,2020-11-20_17h34.34.492,test2,2020.2.5,MacIntel,60,,,,,,,
,,,,m,0.694305,0,7,7,7,1,houses/images/104.jpg,houses/images/46.jpg,8,Maggie ,001,2020-11-20_17h34.34.492,test2,2020.2.5,MacIntel,60,,,,,,,
,,,,z,0.54741,0,8,8,8,1,houses/images/105.jpg,houses/images/109.jpg,9,Maggie ,001,2020-11-20_17h34.34.492,test2,2020.2.5,MacIntel,60,,,,,,,
,,,,m,0.397265,0,9,9,9,1,houses/images/106.jpg,houses/images/12.jpg,10,Maggie ,001,2020-11-20_17h34.34.492,test2,2020.2.5,MacIntel,60,,,,,,,
,,,,z,0.36824,0,10,10,10,1,houses/images/107.jpg,houses/images/358.jpg,11,Maggie ,001,2020-11-20_17h34.34.492,test2,2020.2.5,MacIntel,60,,,,,,,
,,,,m,0.35144,0,11,11,11,1,houses/images/108.jpg,houses/images/197.jpg,12,Maggie ,001,2020-11-20_17h34.34.492,test2,2020.2.5,MacIntel,60,,,,,,,
,,,,z,0.31692,0,12,12,12,1,houses/images/109.jpg,houses/images/133.jpg,13,Maggie ,001,2020-11-20_17h34.34.492,test2,2020.2.5,MacIntel,60,,,,,,,
,,,,m,0.316035,0,13,13,13,1,houses/images/11.jpg,houses/images/286.jpg,14,Maggie ,001,2020-11-20_17h34.34.492,test2,2020.2.5,MacIntel,60,,,,,,,
,,,,z,1.18615,0,14,14,14,1,houses/images/210.jpg,houses/images/33.jpg,15,Maggie ,001,2020-11-20_17h34.34.492,test2,2020.2.5,MacIntel,60,,,,,,,
,,,,z,0.721525,0,15,15,15,1,houses/images/111.jpg,houses/images/156.jpg,16,Maggie ,001,2020-11-20_17h34.34.492,test2,2020.2.5,MacIntel,60,,,,,,,
,,,,z,0.901775,0,16,16,16,1,houses/images/112.jpg,houses/images/128.jpg,17,Maggie ,001,2020-11-20_17h34.34.492,test2,2020.2.5,MacIntel,60,,,,,,,
,,,,z,0.98525,0,17,17,17,1,houses/images/113.jpg,houses/images/306.jpg,18,Maggie ,001,2020-11-20_17h34.34.492,test2,2020.2.5,MacIntel,60,,,,,,,
,,,,m,0.70073,0,18,18,18,1,houses/images/114.jpg,houses/images/272.jpg,19,Maggie ,001,2020-11-20_17h34.34.492,test2,2020.2.5,MacIntel,60,,,,,,,
,,,,z,0.638215,0,19,19,19,1,houses/images/115.jpg,houses/images/112.jpg,20,Maggie ,001,2020-11-20_17h34.34.492,test2,2020.2.5,MacIntel,60,,,,,,,
,,,,m,0.71843,0,20,20,20,1,houses/images/116.jpg,houses/images/101.jpg,21,Maggie ,001,2020-11-20_17h34.34.492,test2,2020.2.5,MacIntel,60,,,,,,,
,,,,z,0.61789,0,21,21,21,1,houses/images/117.jpg,houses/images/298.jpg,22,Maggie ,001,2020-11-20_17h34.34.492,test2,2020.2.5,MacIntel,60,,,,,,,
,,,,m,0.45562,0,22,22,22,1,houses/images/118.jpg,houses/images/80.jpg,23,Maggie ,001,2020-11-20_17h34.34.492,test2,2020.2.5,MacIntel,60,,,,,,,
,,,,z,0.333845,0,23,23,23,1,houses/images/119.jpg,houses/images/329.jpg,24,Maggie ,001,2020-11-20_17h34.34.492,test2,2020.2.5,MacIntel,60,,,,,,,
,,,,m,0.317995,0,24,24,24,1,houses/images/12.jpg,houses/images/320.jpg,25,Maggie ,001,2020-11-20_17h34.34.492,test2,2020.2.5,MacIntel,60,,,,,,,
,,,,z,0.138365,0,25,25,25,1,houses/images/120.jpg,houses/images/24.jpg,26,Maggie ,001,2020-11-20_17h34.34.492,test2,2020.2.5,MacIntel,60,,,,,,,
,,,,m,0.33541,0,26,26,26,1,houses/images/121.jpg,houses/images/341.jpg,27,Maggie ,001,2020-11-20_17h34.34.492,test2,2020.2.5,MacIntel,60,,,,,,,
,,,,z,0.172255,0,27,27,27,1,houses/images/122.jpg,houses/images/38.jpg,28,Maggie ,001,2020-11-20_17h34.34.492,test2,2020.2.5,MacIntel,60,,,,,,,
,,,,m,0.30167,0,28,28,28,1,houses/images/123.jpg,houses/images/98.jpg,29,Maggie ,001,2020-11-20_17h34.34.492,test2,2020.2.5,MacIntel,60,,,,,,,
,,,,z,0.16923,0,29,29,29,1,houses/images/124.jpg,houses/images/213.jpg,30,Maggie ,001,2020-11-20_17h34.34.492,test2,2020.2.5,MacIntel,60,,,,,,,
,,,,m,0.33527,0,30,30,30,1,houses/images/225.jpg,houses/images/208.jpg,31,Maggie ,001,2020-11-20_17h34.34.492,test2,2020.2.5,MacIntel,60,,,,,,,
,,,,z,0.15194,0,31,31,31,1,houses/images/226.jpg,houses/images/210.jpg,32,Maggie ,001,2020-11-20_17h34.34.492,test2,2020.2.5,MacIntel,60,,,,,,,
,,,,m,0.315605,0,32,32,32,1,houses/images/127.jpg,houses/images/90.jpg,33,Maggie ,001,2020-11-20_17h34.34.492,test2,2020.2.5,MacIntel,60,,,,,,,
,,,,z,0.096415,0,33,33,33,1,houses/images/128.jpg,houses/images/113.jpg,34,Maggie ,001,2020-11-20_17h34.34.492,test2,2020.2.5,MacIntel,60,,,,,,,
,,,,m,0.31227,0,34,34,34,1,houses/images/129.jpg,houses/images/232.jpg,35,Maggie ,001,2020-11-20_17h34.34.492,test2,2020.2.5,MacIntel,60,,,,,,,
,,,,z,0.14945,0,35,35,35,1,houses/images/13.jpg,houses/images/359.jpg,36,Maggie ,001,2020-11-20_17h34.34.492,test2,2020.2.5,MacIntel,60,,,,,,,
,,,,m,0.305195,0,36,36,36,1,houses/images/130.jpg,houses/images/187.jpg,37,Maggie ,001,2020-11-20_17h34.34.492,test2,2020.2.5,MacIntel,60,,,,,,,
,,,,z,0.13502,0,37,37,37,1,houses/images/131.jpg,houses/images/275.jpg,38,Maggie ,001,2020-11-20_17h34.34.492,test2,2020.2.5,MacIntel,60,,,,,,,
,,,,z,1.209545,0,38,38,38,1,houses/images/132.jpg,houses/images/162.jpg,39,Maggie ,001,2020-11-20_17h34.34.492,test2,2020.2.5,MacIntel,60,,,,,,,
,,,,z,0.573075,0,39,39,39,1,houses/images/133.jpg,houses/images/311.jpg,40,Maggie ,001,2020-11-20_17h34.34.492,test2,2020.2.5,MacIntel,60,,,,,,,
,,,,z,0.36839,0,40,40,40,1,houses/images/134.jpg,houses/images/277.jpg,41,Maggie ,001,2020-11-20_17h34.34.492,test2,2020.2.5,MacIntel,60,,,,,,,
,,,,z,0.31611,0,41,41,41,1,houses/images/135.jpg,houses/images/71.jpg,42,Maggie ,001,2020-11-20_17h34.34.492,test2,2020.2.5,MacIntel,60,,,,,,,
,,,,z,1.02158,0,42,42,42,1,houses/images/236.jpg,houses/images/72.jpg,43,Maggie ,001,2020-11-20_17h34.34.492,test2,2020.2.5,MacIntel,60,,,,,,,
,,,,z,0.28493,0,43,43,43,1,houses/images/137.jpg,houses/images/246.jpg,44,Maggie ,001,2020-11-20_17h34.34.492,test2,2020.2.5,MacIntel,60,,,,,,,
,,,,z,0.28561,0,44,44,44,1,houses/images/138.jpg,houses/images/174.jpg,45,Maggie ,001,2020-11-20_17h34.34.492,test2,2020.2.5,MacIntel,60,,,,,,,
,,,,z,0.28158,0,45,45,45,1,houses/images/239.jpg,houses/images/292.jpg,46,Maggie ,001,2020-11-20_17h34.34.492,test2,2020.2.5,MacIntel,60,,,,,,,
,,,,m,0.590915,0,46,46,46,1,houses/images/14.jpg,houses/images/194.jpg,47,Maggie ,001,2020-11-20_17h34.34.492,test2,2020.2.5,MacIntel,60,,,,,,,
,,,,z,0.56221,0,47,47,47,1,houses/images/240.jpg,houses/images/180.jpg,48,Maggie ,001,2020-11-20_17h34.34.492,test2,2020.2.5,MacIntel,60,,,,,,,
,,,,m,0.31456,0,48,48,48,1,houses/images/141.jpg,houses/images/262.jpg,49,Maggie ,001,2020-11-20_17h34.34.492,test2,2020.2.5,MacIntel,60,,,,,,,
,,,,m,0.76982,0,49,49,49,1,houses/images/42.jpg,houses/images/118.jpg,50,Maggie ,001,2020-11-20_17h34.34.492,test2,2020.2.5,MacIntel,60,,,,,,,
,,,,m,0.479575,0,50,50,50,1,houses/images/143.jpg,houses/images/316.jpg,51,Maggie ,001,2020-11-20_17h34.34.492,test2,2020.2.5,MacIntel,60,,,,,,,
,,,,m,0.547035,0,51,51,51,1,houses/images/144.jpg,houses/images/29.jpg,52,Maggie ,001,2020-11-20_17h34.34.492,test2,2020.2.5,MacIntel,60,,,,,,,
,,,,m,1.101085,0,52,52,52,1,houses/images/145.jpg,houses/images/146.jpg,53,Maggie ,001,2020-11-20_17h34.34.492,test2,2020.2.5,MacIntel,60,,,,,,,
,,,,m,0.81873,0,53,53,53,1,houses/images/146.jpg,houses/images/342.jpg,54,Maggie ,001,2020-11-20_17h34.34.492,test2,2020.2.5,MacIntel,60,,,,,,,
,,,,m,0.551545,0,54,54,54,1,houses/images/147.jpg,houses/images/120.jpg,55,Maggie ,001,2020-11-20_17h34.34.492,test2,2020.2.5,MacIntel,60,,,,,,,
,,,,m,0.600635,0,55,55,55,1,houses/images/148.jpg,houses/images/204.jpg,56,Maggie ,001,2020-11-20_17h34.34.492,test2,2020.2.5,MacIntel,60,,,,,,,
,,,,m,0.64955,0,56,56,56,1,houses/images/149.jpg,houses/images/292.jpg,57,Maggie ,001,2020-11-20_17h34.34.492,test2,2020.2.5,MacIntel,60,,,,,,,
,,,,z,0.765575,0,57,57,57,1,houses/images/15.jpg,houses/images/191.jpg,58,Maggie ,001,2020-11-20_17h34.34.492,test2,2020.2.5,MacIntel,60,,,,,,,
,,,,m,0.50021,0,58,58,58,1,houses/images/150.jpg,houses/images/318.jpg,59,Maggie ,001,2020-11-20_17h34.34.492,test2,2020.2.5,MacIntel,60,,,,,,,
,,,,m,0.783885,0,59,59,59,1,houses/images/151.jpg,houses/images/255.jpg,60,Maggie ,001,2020-11-20_17h34.34.492,test2,2020.2.5,MacIntel,60,,,,,,,
,,,,m,0.459375,0,60,60,60,1,houses/images/152.jpg,houses/images/261.jpg,61,Maggie ,001,2020-11-20_17h34.34.492,test2,2020.2.5,MacIntel,60,,,,,,,
,,,,m,0.93343,0,61,61,61,1,houses/images/253.jpg,houses/images/129.jpg,62,Maggie ,001,2020-11-20_17h34.34.492,test2,2020.2.5,MacIntel,60,,,,,,,
,,,,m,0.584605,0,62,62,62,1,houses/images/154.jpg,houses/images/36.jpg,63,Maggie ,001,2020-11-20_17h34.34.492,test2,2020.2.5,MacIntel,60,,,,,,,
,,,,m,0.550745,0,63,63,63,1,houses/images/155.jpg,houses/images/210.jpg,64,Maggie ,001,2020-11-20_17h34.34.492,test2,2020.2.5,MacIntel,60,,,,,,,
,,,,m,0.58702,0,64,64,64,1,houses/images/156.jpg,houses/images/132.jpg,65,Maggie ,001,2020-11-20_17h34.34.492,test2,2020.2.5,MacIntel,60,,,,,,,
,,,,m,0.523925,0,65,65,65,1,houses/images/157.jpg,houses/images/70.jpg,66,Maggie ,001,2020-11-20_17h34.34.492,test2,2020.2.5,MacIntel,60,,,,,,,
,,,,z,1.300575,0,66,66,66,1,houses/images/158.jpg,houses/images/199.jpg,67,Maggie ,001,2020-11-20_17h34.34.492,test2,2020.2.5,MacIntel,60,,,,,,,
,,,,m,0.634595,0,67,67,67,1,houses/images/159.jpg,houses/images/226.jpg,68,Maggie ,001,2020-11-20_17h34.34.492,test2,2020.2.5,MacIntel,60,,,,,,,
,,,,z,0.383275,0,68,68,68,1,houses/images/16.jpg,houses/images/50.jpg,69,Maggie ,001,2020-11-20_17h34.34.492,test2,2020.2.5,MacIntel,60,,,,,,,
,,,,m,0.466155,0,69,69,69,1,houses/images/160.jpg,houses/images/239.jpg,70,Maggie ,001,2020-11-20_17h34.34.492,test2,2020.2.5,MacIntel,60,,,,,,,
,,,,z,0.35603,0,70,70,70,1,houses/images/161.jpg,houses/images/289.jpg,71,Maggie ,001,2020-11-20_17h34.34.492,test2,2020.2.5,MacIntel,60,,,,,,,
,,,,z,0.538305,0,71,71,71,1,houses/images/162.jpg,houses/images/325.jpg,72,Maggie ,001,2020-11-20_17h34.34.492,test2,2020.2.5,MacIntel,60,,,,,,,
,,,,z,0.45417,0,72,72,72,1,houses/images/163.jpg,houses/images/259.jpg,73,Maggie ,001,2020-11-20_17h34.34.492,test2,2020.2.5,MacIntel,60,,,,,,,
,,,,z,0.468255,0,73,73,73,1,houses/images/164.jpg,houses/images/316.jpg,74,Maggie ,001,2020-11-20_17h34.34.492,test2,2020.2.5,MacIntel,60,,,,,,,
,,,,z,0.417965,0,74,74,74,1,houses/images/165.jpg,houses/images/311.jpg,75,Maggie ,001,2020-11-20_17h34.34.492,test2,2020.2.5,MacIntel,60,,,,,,,
,,,,m,0.38516,0,75,75,75,1,houses/images/166.jpg,houses/images/246.jpg,76,Maggie ,001,2020-11-20_17h34.34.492,test2,2020.2.5,MacIntel,60,,,,,,,
,,,,m,0.31726,0,76,76,76,1,houses/images/167.jpg,houses/images/269.jpg,77,Maggie ,001,2020-11-20_17h34.34.492,test2,2020.2.5,MacIntel,60,,,,,,,
,,,,m,0.42179,0,77,77,77,1,houses/images/168.jpg,houses/images/360.jpg,78,Maggie ,001,2020-11-20_17h34.34.492,test2,2020.2.5,MacIntel,60,,,,,,,
,,,,m,0.356705,0,78,78,78,1,houses/images/169.jpg,houses/images/116.jpg,79,Maggie ,001,2020-11-20_17h34.34.492,test2,2020.2.5,MacIntel,60,,,,,,,
,,,,z,0.284545,0,79,79,79,1,houses/images/17.jpg,houses/images/245.jpg,80,Maggie ,001,2020-11-20_17h34.34.492,test2,2020.2.5,MacIntel,60,,,,,,,
,,,,z,0.352005,0,80,80,80,1,houses/images/170.jpg,houses/images/152.jpg,81,Maggie ,001,2020-11-20_17h34.34.492,test2,2020.2.5,MacIntel,60,,,,,,,
,,,,m,0.285365,0,81,81,81,1,houses/images/171.jpg,houses/images/77.jpg,82,Maggie ,001,2020-11-20_17h34.34.492,test2,2020.2.5,MacIntel,60,,,,,,,
,,,,m,0.357125,0,82,82,82,1,houses/images/172.jpg,houses/images/154.jpg,83,Maggie ,001,2020-11-20_17h34.34.492,test2,2020.2.5,MacIntel,60,,,,,,,
,,,,m,0.33473,0,83,83,83,1,houses/images/273.jpg,houses/images/210.jpg,84,Maggie ,001,2020-11-20_17h34.34.492,test2,2020.2.5,MacIntel,60,,,,,,,
,,,,m,0.401455,0,84,84,84,1,houses/images/174.jpg,houses/images/121.jpg,85,Maggie ,001,2020-11-20_17h34.34.492,test2,2020.2.5,MacIntel,60,,,,,,,
,,,,z,0.184705,0,85,85,85,1,houses/images/175.jpg,houses/images/47.jpg,86,Maggie ,001,2020-11-20_17h34.34.492,test2,2020.2.5,MacIntel,60,,,,,,,
,,,,z,0.2645,0,86,86,86,1,houses/images/176.jpg,houses/images/328.jpg,87,Maggie ,001,2020-11-20_17h34.34.492,test2,2020.2.5,MacIntel,60,,,,,,,
,,,,z,0.244045,0,87,87,87,1,houses/images/177.jpg,houses/images/35.jpg,88,Maggie ,001,2020-11-20_17h34.34.492,test2,2020.2.5,MacIntel,60,,,,,,,
,,,,z,0.235935,0,88,88,88,1,houses/images/178.jpg,houses/images/299.jpg,89,Maggie ,001,2020-11-20_17h34.34.492,test2,2020.2.5,MacIntel,60,,,,,,,
,,,,z,0.234415,0,89,89,89,1,houses/images/179.jpg,houses/images/283.jpg,90,Maggie ,001,2020-11-20_17h34.34.492,test2,2020.2.5,MacIntel,60,,,,,,,
,,,,z,0.20545,0,90,90,90,1,houses/images/18.jpg,houses/images/182.jpg,91,Maggie ,001,2020-11-20_17h34.34.492,test2,2020.2.5,MacIntel,60,,,,,,,
,,,,m,0.351685,0,91,91,91,1,houses/images/180.jpg,houses/images/327.jpg,92,Maggie ,001,2020-11-20_17h34.34.492,test2,2020.2.5,MacIntel,60,,,,,,,
,,,,m,0.268255,0,92,92,92,1,houses/images/281.jpg,houses/images/334.jpg,93,Maggie ,001,2020-11-20_17h34.34.492,test2,2020.2.5,MacIntel,60,,,,,,,
,,,,m,0.31849,0,93,93,93,1,houses/images/182.jpg,houses/images/75.jpg,94,Maggie ,001,2020-11-20_17h34.34.492,test2,2020.2.5,MacIntel,60,,,,,,,
,,,,m,0.5804,0,94,94,94,1,houses/images/183.jpg,houses/images/137.jpg,95,Maggie ,001,2020-11-20_17h34.34.492,test2,2020.2.5,MacIntel,60,,,,,,,
,,,,m,0.612465,0,95,95,95,1,houses/images/184.jpg,houses/images/344.jpg,96,Maggie ,001,2020-11-20_17h34.34.492,test2,2020.2.5,MacIntel,60,,,,,,,
,,,,m,0.40135,0,96,96,96,1,houses/images/185.jpg,houses/images/285.jpg,97,Maggie ,001,2020-11-20_17h34.34.492,test2,2020.2.5,MacIntel,60,,,,,,,
,,,,m,0.35142,0,97,97,97,1,houses/images/186.jpg,houses/images/230.jpg,98,Maggie ,001,2020-11-20_17h34.34.492,test2,2020.2.5,MacIntel,60,,,,,,,
,,,,z,0.47011,0,98,98,98,1,houses/images/187.jpg,houses/images/3.jpg,99,Maggie ,001,2020-11-20_17h34.34.492,test2,2020.2.5,MacIntel,60,,,,,,,
,,,,m,0.66426,0,99,99,99,1,houses/images/188.jpg,houses/images/304.jpg,100,Maggie ,001,2020-11-20_17h34.34.492,test2,2020.2.5,MacIntel,60,,,,,,,
,,,,z,0.33411,0,100,100,100,1,houses/images/189.jpg,houses/images/17.jpg,101,Maggie ,001,2020-11-20_17h34.34.492,test2,2020.2.5,MacIntel,60,,,,,,,
,,,,m,0.484925,0,101,101,101,1,houses/images/19.jpg,houses/images/351.jpg,102,Maggie ,001,2020-11-20_17h34.34.492,test2,2020.2.5,MacIntel,60,,,,,,,
,,,,z,0.396895,0,102,102,102,1,houses/images/190.jpg,houses/images/307.jpg,103,Maggie ,001,2020-11-20_17h34.34.492,test2,2020.2.5,MacIntel,60,,,,,,,
,,,,m,0.31184,0,103,103,103,1,houses/images/191.jpg,houses/images/326.jpg,104,Maggie ,001,2020-11-20_17h34.34.492,test2,2020.2.5,MacIntel,60,,,,,,,
,,,,z,0.292685,0,104,104,104,1,houses/images/292.jpg,houses/images/240.jpg,105,Maggie ,001,2020-11-20_17h34.34.492,test2,2020.2.5,MacIntel,60,,,,,,,
,,,,z,0.51693,0,105,105,105,1,houses/images/193.jpg,houses/images/243.jpg,106,Maggie ,001,2020-11-20_17h34.34.492,test2,2020.2.5,MacIntel,60,,,,,,,
,,,,z,0.451625,0,106,106,106,1,houses/images/194.jpg,houses/images/291.jpg,107,Maggie ,001,2020-11-20_17h34.34.492,test2,2020.2.5,MacIntel,60,,,,,,,
,,,,z,0.38115,0,107,107,107,1,houses/images/195.jpg,houses/images/361.jpg,108,Maggie ,001,2020-11-20_17h34.34.492,test2,2020.2.5,MacIntel,60,,,,,,,
,,,,z,0.39939,0,108,108,108,1,houses/images/196.jpg,houses/images/30.jpg,109,Maggie ,001,2020-11-20_17h34.34.492,test2,2020.2.5,MacIntel,60,,,,,,,
,,,,z,0.35052,0,109,109,109,1,houses/images/197.jpg,houses/images/22.jpg,110,Maggie ,001,2020-11-20_17h34.34.492,test2,2020.2.5,MacIntel,60,,,,,,,
,,,,m,0.400605,0,110,110,110,1,houses/images/198.jpg,houses/images/250.jpg,111,Maggie ,001,2020-11-20_17h34.34.492,test2,2020.2.5,MacIntel,60,,,,,,,
,,,,m,0.40218,0,111,111,111,1,houses/images/199.jpg,houses/images/323.jpg,112,Maggie ,001,2020-11-20_17h34.34.492,test2,2020.2.5,MacIntel,60,,,,,,,
,,,,m,0.405145,0,112,112,112,1,houses/images/2.jpg,houses/images/187.jpg,113,Maggie ,001,2020-11-20_17h34.34.492,test2,2020.2.5,MacIntel,60,,,,,,,
,,,,z,0.251675,0,113,113,113,1,houses/images/20.jpg,houses/images/100.jpg,114,Maggie ,001,2020-11-20_17h34.34.492,test2,2020.2.5,MacIntel,60,,,,,,,
,,,,m,0.30094,0,114,114,114,1,houses/images/200.jpg,houses/images/238.jpg,115,Maggie ,001,2020-11-20_17h34.34.492,test2,2020.2.5,MacIntel,60,,,,,,,
,,,,m,0.302675,0,115,115,115,1,houses/images/201.jpg,houses/images/58.jpg,116,Maggie ,001,2020-11-20_17h34.34.492,test2,2020.2.5,MacIntel,60,,,,,,,
,,,,z,0.28301,0,116,116,116,1,houses/images/202.jpg,houses/images/205.jpg,117,Maggie ,001,2020-11-20_17h34.34.492,test2,2020.2.5,MacIntel,60,,,,,,,
,,,,m,0.332765,0,117,117,117,1,houses/images/203.jpg,houses/images/40.jpg,118,Maggie ,001,2020-11-20_17h34.34.492,test2,2020.2.5,MacIntel,60,,,,,,,
,,,,z,0.302325,0,118,118,118,1,houses/images/204.jpg,houses/images/64.jpg,119,Maggie ,001,2020-11-20_17h34.34.492,test2,2020.2.5,MacIntel,60,,,,,,,
,,,,z,0.318285,0,119,119,119,1,houses/images/205.jpg,houses/images/155.jpg,120,Maggie ,001,2020-11-20_17h34.34.492,test2,2020.2.5,MacIntel,60,,,,,,,
,,,,m,0.427205,0,120,120,120,1,houses/images/206.jpg,houses/images/199.jpg,121,Maggie ,001,2020-11-20_17h34.34.492,test2,2020.2.5,MacIntel,60,,,,,,,
,,,,z,0.31951,0,121,121,121,1,houses/images/207.jpg,houses/images/233.jpg,122,Maggie ,001,2020-11-20_17h34.34.492,test2,2020.2.5,MacIntel,60,,,,,,,
,,,,z,0.38515,0,122,122,122,1,houses/images/208.jpg,houses/images/8.jpg,123,Maggie ,001,2020-11-20_17h34.34.492,test2,2020.2.5,MacIntel,60,,,,,,,
,,,,m,0.484205,0,123,123,123,1,houses/images/209.jpg,houses/images/167.jpg,124,Maggie ,001,2020-11-20_17h34.34.492,test2,2020.2.5,MacIntel,60,,,,,,,
,,,,z,0.3513,0,124,124,124,1,houses/images/21.jpg,houses/images/103.jpg,125,Maggie ,001,2020-11-20_17h34.34.492,test2,2020.2.5,MacIntel,60,,,,,,,
,,,,z,0.61808,0,125,125,125,1,houses/images/210.jpg,houses/images/104.jpg,126,Maggie ,001,2020-11-20_17h34.34.492,test2,2020.2.5,MacIntel,60,,,,,,,
,,,,z,0.26714,0,126,126,126,1,houses/images/211.jpg,houses/images/327.jpg,127,Maggie ,001,2020-11-20_17h34.34.492,test2,2020.2.5,MacIntel,60,,,,,,,
,,,,m,0.300755,0,127,127,127,1,houses/images/212.jpg,houses/images/253.jpg,128,Maggie ,001,2020-11-20_17h34.34.492,test2,2020.2.5,MacIntel,60,,,,,,,
,,,,m,0.33457,0,128,128,128,1,houses/images/213.jpg,houses/images/26.jpg,129,Maggie ,001,2020-11-20_17h34.34.492,test2,2020.2.5,MacIntel,60,,,,,,,
,,,,z,0.285915,0,129,129,129,1,houses/images/214.jpg,houses/images/198.jpg,130,Maggie ,001,2020-11-20_17h34.34.492,test2,2020.2.5,MacIntel,60,,,,,,,
,,,,m,0.45035,0,130,130,130,1,houses/images/215.jpg,houses/images/4.jpg,131,Maggie ,001,2020-11-20_17h34.34.492,test2,2020.2.5,MacIntel,60,,,,,,,
,,,,z,0.30555,0,131,131,131,1,houses/images/316.jpg,houses/images/62.jpg,132,Maggie ,001,2020-11-20_17h34.34.492,test2,2020.2.5,MacIntel,60,,,,,,,
,,,,z,0.29683,0,132,132,132,1,houses/images/217.jpg,houses/images/114.jpg,133,Maggie ,001,2020-11-20_17h34.34.492,test2,2020.2.5,MacIntel,60,,,,,,,
,,,,z,0.28206,0,133,133,133,1,houses/images/318.jpg,houses/images/308.jpg,134,Maggie ,001,2020-11-20_17h34.34.492,test2,2020.2.5,MacIntel,60,,,,,,,
,,,,z,0.38794,0,134,134,134,1,houses/images/219.jpg,houses/images/254.jpg,135,Maggie ,001,2020-11-20_17h34.34.492,test2,2020.2.5,MacIntel,60,,,,,,,
,,,,z,0.368045,0,135,135,135,1,houses/images/22.jpg,houses/images/170.jpg,136,Maggie ,001,2020-11-20_17h34.34.492,test2,2020.2.5,MacIntel,60,,,,,,,
,,,,z,0.28388,0,136,136,136,1,houses/images/220.jpg,houses/images/179.jpg,137,Maggie ,001,2020-11-20_17h34.34.492,test2,2020.2.5,MacIntel,60,,,,,,,
,,,,z,0.266985,0,137,137,137,1,houses/images/221.jpg,houses/images/238.jpg,138,Maggie ,001,2020-11-20_17h34.34.492,test2,2020.2.5,MacIntel,60,,,,,,,
,,,,z,0.230075,0,138,138,138,1,houses/images/222.jpg,houses/images/256.jpg,139,Maggie ,001,2020-11-20_17h34.34.492,test2,2020.2.5,MacIntel,60,,,,,,,
,,,,z,0.234665,0,139,139,139,1,houses/images/223.jpg,houses/images/322.jpg,140,Maggie ,001,2020-11-20_17h34.34.492,test2,2020.2.5,MacIntel,60,,,,,,,
,,,,z,0.261215,0,140,140,140,1,houses/images/224.jpg,houses/images/209.jpg,141,Maggie ,001,2020-11-20_17h34.34.492,test2,2020.2.5,MacIntel,60,,,,,,,
,,,,z,0.220675,0,141,141,141,1,houses/images/225.jpg,houses/images/219.jpg,142,Maggie ,001,2020-11-20_17h34.34.492,test2,2020.2.5,MacIntel,60,,,,,,,
,,,,z,0.267255,0,142,142,142,1,houses/images/226.jpg,houses/images/79.jpg,143,Maggie ,001,2020-11-20_17h34.34.492,test2,2020.2.5,MacIntel,60,,,,,,,
,,,,m,0.2517,0,143,143,143,1,houses/images/227.jpg,houses/images/279.jpg,144,Maggie ,001,2020-11-20_17h34.34.492,test2,2020.2.5,MacIntel,60,,,,,,,
,,,,m,0.412985,0,144,144,144,1,houses/images/228.jpg,houses/images/111.jpg,145,Maggie ,001,2020-11-20_17h34.34.492,test2,2020.2.5,MacIntel,60,,,,,,,
,,,,m,0.397595,0,145,145,145,1,houses/images/229.jpg,houses/images/257.jpg,146,Maggie ,001,2020-11-20_17h34.34.492,test2,2020.2.5,MacIntel,60,,,,,,,
,,,,m,0.436825,0,146,146,146,1,houses/images/23.jpg,houses/images/318.jpg,147,Maggie ,001,2020-11-20_17h34.34.492,test2,2020.2.5,MacIntel,60,,,,,,,
,,,,z,0.51752,0,147,147,147,1,houses/images/230.jpg,houses/images/312.jpg,148,Maggie ,001,2020-11-20_17h34.34.492,test2,2020.2.5,MacIntel,60,,,,,,,
,,,,m,0.30183,0,148,148,148,1,houses/images/231.jpg,houses/images/253.jpg,149,Maggie ,001,2020-11-20_17h34.34.492,test2,2020.2.5,MacIntel,60,,,,,,,
,,,,z,0.26816,0,149,149,149,1,houses/images/232.jpg,houses/images/236.jpg,150,Maggie ,001,2020-11-20_17h34.34.492,test2,2020.2.5,MacIntel,60,,,,,,,
,,,,m,0.28239,0,150,150,150,1,houses/images/233.jpg,houses/images/66.jpg,151,Maggie ,001,2020-11-20_17h34.34.492,test2,2020.2.5,MacIntel,60,,,,,,,
,,,,z,0.16588,0,151,151,151,1,houses/images/234.jpg,houses/images/138.jpg,152,Maggie ,001,2020-11-20_17h34.34.492,test2,2020.2.5,MacIntel,60,,,,,,,
,,,,m,0.26953,0,152,152,152,1,houses/images/235.jpg,houses/images/124.jpg,153,Maggie ,001,2020-11-20_17h34.34.492,test2,2020.2.5,MacIntel,60,,,,,,,
,,,,z,0.18445,0,153,153,153,1,houses/images/236.jpg,houses/images/160.jpg,154,Maggie ,001,2020-11-20_17h34.34.492,test2,2020.2.5,MacIntel,60,,,,,,,
,,,,m,0.313365,0,154,154,154,1,houses/images/237.jpg,houses/images/314.jpg,155,Maggie ,001,2020-11-20_17h34.34.492,test2,2020.2.5,MacIntel,60,,,,,,,
,,,,z,0.30492,0,155,155,155,1,houses/images/238.jpg,houses/images/145.jpg,156,Maggie ,001,2020-11-20_17h34.34.492,test2,2020.2.5,MacIntel,60,,,,,,,
,,,,z,0.251945,0,156,156,156,1,houses/images/239.jpg,houses/images/195.jpg,157,Maggie ,001,2020-11-20_17h34.34.492,test2,2020.2.5,MacIntel,60,,,,,,,
,,,,z,0.20181,0,157,157,157,1,houses/images/24.jpg,houses/images/0.jpg,158,Maggie ,001,2020-11-20_17h34.34.492,test2,2020.2.5,MacIntel,60,,,,,,,
,,,,z,0.2228,0,158,158,158,1,houses/images/240.jpg,houses/images/81.jpg,159,Maggie ,001,2020-11-20_17h34.34.492,test2,2020.2.5,MacIntel,60,,,,,,,
,,,,z,0.668055,0,159,159,159,1,houses/images/241.jpg,houses/images/226.jpg,160,Maggie ,001,2020-11-20_17h34.34.492,test2,2020.2.5,MacIntel,60,,,,,,,
,,,,z,0.550965,0,160,160,160,1,houses/images/342.jpg,houses/images/319.jpg,161,Maggie ,001,2020-11-20_17h34.34.492,test2,2020.2.5,MacIntel,60,,,,,,,
,,,,m,0.352045,0,161,161,161,1,houses/images/243.jpg,houses/images/23.jpg,162,Maggie ,001,2020-11-20_17h34.34.492,test2,2020.2.5,MacIntel,60,,,,,,,
,,,,m,0.234785,0,162,162,162,1,houses/images/244.jpg,houses/images/146.jpg,163,Maggie ,001,2020-11-20_17h34.34.492,test2,2020.2.5,MacIntel,60,,,,,,,
,,,,m,0.20474,0,163,163,163,1,houses/images/245.jpg,houses/images/28.jpg,164,Maggie ,001,2020-11-20_17h34.34.492,test2,2020.2.5,MacIntel,60,,,,,,,
,,,,m,0.23411,0,164,164,164,1,houses/images/246.jpg,houses/images/157.jpg,165,Maggie ,001,2020-11-20_17h34.34.492,test2,2020.2.5,MacIntel,60,,,,,,,
,,,,m,0.26979,0,165,165,165,1,houses/images/247.jpg,houses/images/2.jpg,166,Maggie ,001,2020-11-20_17h34.34.492,test2,2020.2.5,MacIntel,60,,,,,,,
,,,,z,0.229305,0,166,166,166,1,houses/images/248.jpg,houses/images/87.jpg,167,Maggie ,001,2020-11-20_17h34.34.492,test2,2020.2.5,MacIntel,60,,,,,,,
,,,,m,0.298265,0,167,167,167,1,houses/images/249.jpg,houses/images/270.jpg,168,Maggie ,001,2020-11-20_17h34.34.492,test2,2020.2.5,MacIntel,60,,,,,,,
,,,,m,0.40437,0,168,168,168,1,houses/images/25.jpg,houses/images/67.jpg,169,Maggie ,001,2020-11-20_17h34.34.492,test2,2020.2.5,MacIntel,60,,,,,,,
,,,,m,0.36805,0,169,169,169,1,houses/images/250.jpg,houses/images/234.jpg,170,Maggie ,001,2020-11-20_17h34.34.492,test2,2020.2.5,MacIntel,60,,,,,,,
,,,,m,0.286565,0,170,170,170,1,houses/images/251.jpg,houses/images/16.jpg,171,Maggie ,001,2020-11-20_17h34.34.492,test2,2020.2.5,MacIntel,60,,,,,,,
,,,,m,0.28589,0,171,171,171,1,houses/images/252.jpg,houses/images/12.jpg,172,Maggie ,001,2020-11-20_17h34.34.492,test2,2020.2.5,MacIntel,60,,,,,,,
,,,,m,0.267545,0,172,172,172,1,houses/images/253.jpg,houses/images/185.jpg,173,Maggie ,001,2020-11-20_17h34.34.492,test2,2020.2.5,MacIntel,60,,,,,,,
,,,,z,0.234845,0,173,173,173,1,houses/images/254.jpg,houses/images/39.jpg,174,Maggie ,001,2020-11-20_17h34.34.492,test2,2020.2.5,MacIntel,60,,,,,,,
,,,,m,0.368115,0,174,174,174,1,houses/images/255.jpg,houses/images/237.jpg,175,Maggie ,001,2020-11-20_17h34.34.492,test2,2020.2.5,MacIntel,60,,,,,,,
,,,,m,0.31737,0,175,175,175,1,houses/images/256.jpg,houses/images/356.jpg,176,Maggie ,001,2020-11-20_17h34.34.492,test2,2020.2.5,MacIntel,60,,,,,,,
,,,,m,0.268255,0,176,176,176,1,houses/images/257.jpg,houses/images/107.jpg,177,Maggie ,001,2020-11-20_17h34.34.492,test2,2020.2.5,MacIntel,60,,,,,,,
,,,,m,0.254825,0,177,177,177,1,houses/images/258.jpg,houses/images/84.jpg,178,Maggie ,001,2020-11-20_17h34.34.492,test2,2020.2.5,MacIntel,60,,,,,,,
,,,,m,0.484765,0,178,178,178,1,houses/images/259.jpg,houses/images/119.jpg,179,Maggie ,001,2020-11-20_17h34.34.492,test2,2020.2.5,MacIntel,60,,,,,,,
,,,,m,0.28442,0,179,179,179,1,houses/images/26.jpg,houses/images/227.jpg,180,Maggie ,001,2020-11-20_17h34.34.492,test2,2020.2.5,MacIntel,60,,,,,,,
,,,,m,0.245905,0,180,180,180,1,houses/images/260.jpg,houses/images/238.jpg,181,Maggie ,001,2020-11-20_17h34.34.492,test2,2020.2.5,MacIntel,60,,,,,,,
,,,,m,0.26789,0,181,181,181,1,houses/images/261.jpg,houses/images/337.jpg,182,Maggie ,001,2020-11-20_17h34.34.492,test2,2020.2.5,MacIntel,60,,,,,,,
,,,,z,0.24947,0,182,182,182,1,houses/images/262.jpg,houses/images/214.jpg,183,Maggie ,001,2020-11-20_17h34.34.492,test2,2020.2.5,MacIntel,60,,,,,,,
,,,,m,0.384265,0,183,183,183,1,houses/images/263.jpg,houses/images/239.jpg,184,Maggie ,001,2020-11-20_17h34.34.492,test2,2020.2.5,MacIntel,60,,,,,,,
,,,,m,0.349515,0,184,184,184,1,houses/images/264.jpg,houses/images/149.jpg,185,Maggie ,001,2020-11-20_17h34.34.492,test2,2020.2.5,MacIntel,60,,,,,,,
,,,,m,0.32985,0,185,185,185,1,houses/images/265.jpg,houses/images/68.jpg,186,Maggie ,001,2020-11-20_17h34.34.492,test2,2020.2.5,MacIntel,60,,,,,,,
,,,,m,0.300465,0,186,186,186,1,houses/images/266.jpg,houses/images/271.jpg,187,Maggie ,001,2020-11-20_17h34.34.492,test2,2020.2.5,MacIntel,60,,,,,,,
,,,,z,0.24522,0,187,187,187,1,houses/images/267.jpg,houses/images/87.jpg,188,Maggie ,001,2020-11-20_17h34.34.492,test2,2020.2.5,MacIntel,60,,,,,,,
,,,,m,0.308365,0,188,188,188,1,houses/images/268.jpg,houses/images/348.jpg,189,Maggie ,001,2020-11-20_17h34.34.492,test2,2020.2.5,MacIntel,60,,,,,,,
,,,,m,0.28843,0,189,189,189,1,houses/images/269.jpg,houses/images/228.jpg,190,Maggie ,001,2020-11-20_17h34.34.492,test2,2020.2.5,MacIntel,60,,,,,,,
,,,,m,0.266865,0,190,190,190,1,houses/images/27.jpg,houses/images/317.jpg,191,Maggie ,001,2020-11-20_17h34.34.492,test2,2020.2.5,MacIntel,60,,,,,,,
,,,,m,0.38324,0,191,191,191,1,houses/images/270.jpg,houses/images/10.jpg,192,Maggie ,001,2020-11-20_17h34.34.492,test2,2020.2.5,MacIntel,60,,,,,,,
,,,,z,0.20118,0,192,192,192,1,houses/images/271.jpg,houses/images/222.jpg,193,Maggie ,001,2020-11-20_17h34.34.492,test2,2020.2.5,MacIntel,60,,,,,,,
,,,,z,0.46544,0,193,193,193,1,houses/images/272.jpg,houses/images/314.jpg,194,Maggie ,001,2020-11-20_17h34.34.492,test2,2020.2.5,MacIntel,60,,,,,,,
,,,,z,0.28439,0,194,194,194,1,houses/images/273.jpg,houses/images/28.jpg,195,Maggie ,001,2020-11-20_17h34.34.492,test2,2020.2.5,MacIntel,60,,,,,,,
,,,,z,0.267715,0,195,195,195,1,houses/images/174.jpg,houses/images/294.jpg,196,Maggie ,001,2020-11-20_17h34.34.492,test2,2020.2.5,MacIntel,60,,,,,,,
,,,,m,0.435285,0,196,196,196,1,houses/images/275.jpg,houses/images/60.jpg,197,Maggie ,001,2020-11-20_17h34.34.492,test2,2020.2.5,MacIntel,60,,,,,,,
,,,,z,0.320995,0,197,197,197,1,houses/images/276.jpg,houses/images/144.jpg,198,Maggie ,001,2020-11-20_17h34.34.492,test2,2020.2.5,MacIntel,60,,,,,,,
,,,,m,0.306565,0,198,198,198,1,houses/images/277.jpg,houses/images/168.jpg,199,Maggie ,001,2020-11-20_17h34.34.492,test2,2020.2.5,MacIntel,60,,,,,,,
,,,,z,0.42124,0,199,199,199,1,houses/images/278.jpg,houses/images/206.jpg,200,Maggie ,001,2020-11-20_17h34.34.492,test2,2020.2.5,MacIntel,60,,,,,,,
,,,,m,3.47478,,,,,,houses/images/279.jpg,houses/images/91.jpg,1,Maggie ,001,2020-11-20_17h34.34.492,test2,2020.2.5,MacIntel,60,space,1.767,0,0,0,0,1
,,,,m,0.768595,,,,,,houses/images/28.jpg,houses/images/49.jpg,2,Maggie ,001,2020-11-20_17h34.34.492,test2,2020.2.5,MacIntel,60,,,0,1,1,1,1
,,,,m,0.664165,,,,,,houses/images/280.jpg,houses/images/163.jpg,3,Maggie ,001,2020-11-20_17h34.34.492,test2,2020.2.5,MacIntel,60,,,0,2,2,2,1
,,,,m,0.618915,,,,,,houses/images/281.jpg,houses/images/176.jpg,4,Maggie ,001,2020-11-20_17h34.34.492,test2,2020.2.5,MacIntel,60,,,0,3,3,3,1
,,,,m,0.6853,,,,,,houses/images/282.jpg,houses/images/263.jpg,5,Maggie ,001,2020-11-20_17h34.34.492,test2,2020.2.5,MacIntel,60,,,0,4,4,4,1
,,,,m,0.817445,,,,,,houses/images/283.jpg,houses/images/303.jpg,6,Maggie ,001,2020-11-20_17h34.34.492,test2,2020.2.5,MacIntel,60,,,0,5,5,5,1
,,,,m,0.556635,,,,,,houses/images/284.jpg,houses/images/184.jpg,7,Maggie ,001,2020-11-20_17h34.34.492,test2,2020.2.5,MacIntel,60,,,0,6,6,6,1
,,,,m,0.568345,,,,,,houses/images/285.jpg,houses/images/264.jpg,8,Maggie ,001,2020-11-20_17h34.34.492,test2,2020.2.5,MacIntel,60,,,0,7,7,7,1
,,,,m,0.548915,,,,,,houses/images/286.jpg,houses/images/89.jpg,9,Maggie ,001,2020-11-20_17h34.34.492,test2,2020.2.5,MacIntel,60,,,0,8,8,8,1
,,,,m,0.565365,,,,,,houses/images/187.jpg,houses/images/350.jpg,10,Maggie ,001,2020-11-20_17h34.34.492,test2,2020.2.5,MacIntel,60,,,0,9,9,9,1
,,,,m,0.546795,,,,,,houses/images/288.jpg,houses/images/267.jpg,11,Maggie ,001,2020-11-20_17h34.34.492,test2,2020.2.5,MacIntel,60,,,0,10,10,10,1
,,,,z,0.650745,,,,,,houses/images/289.jpg,houses/images/332.jpg,12,Maggie ,001,2020-11-20_17h34.34.492,test2,2020.2.5,MacIntel,60,,,0,11,11,11,1
,,,,m,0.530255,,,,,,houses/images/29.jpg,houses/images/61.jpg,13,Maggie ,001,2020-11-20_17h34.34.492,test2,2020.2.5,MacIntel,60,,,0,12,12,12,1
,,,,m,0.550075,,,,,,houses/images/290.jpg,houses/images/102.jpg,14,Maggie ,001,2020-11-20_17h34.34.492,test2,2020.2.5,MacIntel,60,,,0,13,13,13,1
,,,,m,0.61817,,,,,,houses/images/291.jpg,houses/images/220.jpg,15,Maggie ,001,2020-11-20_17h34.34.492,test2,2020.2.5,MacIntel,60,,,0,14,14,14,1
,,,,z,0.624905,,,,,,houses/images/292.jpg,houses/images/121.jpg,16,Maggie ,001,2020-11-20_17h34.34.492,test2,2020.2.5,MacIntel,60,,,0,15,15,15,1
,,,,m,0.584985,,,,,,houses/images/293.jpg,houses/images/25.jpg,17,Maggie ,001,2020-11-20_17h34.34.492,test2,2020.2.5,MacIntel,60,,,0,16,16,16,1
,,,,m,0.68477,,,,,,houses/images/294.jpg,houses/images/284.jpg,18,Maggie ,001,2020-11-20_17h34.34.492,test2,2020.2.5,MacIntel,60,,,0,17,17,17,1
,,,,z,0.68458,,,,,,houses/images/295.jpg,houses/images/273.jpg,19,Maggie ,001,2020-11-20_17h34.34.492,test2,2020.2.5,MacIntel,60,,,0,18,18,18,1
,,,,m,0.665525,,,,,,houses/images/296.jpg,houses/images/122.jpg,20,Maggie ,001,2020-11-20_17h34.34.492,test2,2020.2.5,MacIntel,60,,,0,19,19,19,1
,,,,z,0.351345,,,,,,houses/images/297.jpg,houses/images/217.jpg,21,Maggie ,001,2020-11-20_17h34.34.492,test2,2020.2.5,MacIntel,60,,,0,20,20,20,1
,,,,m,0.515365,,,,,,houses/images/298.jpg,houses/images/178.jpg,22,Maggie ,001,2020-11-20_17h34.34.492,test2,2020.2.5,MacIntel,60,,,0,21,21,21,1
,,,,m,0.44389,,,,,,houses/images/299.jpg,houses/images/43.jpg,23,Maggie ,001,2020-11-20_17h34.34.492,test2,2020.2.5,MacIntel,60,,,0,22,22,22,1
,,,,m,0.567065,,,,,,houses/images/3.jpg,houses/images/229.jpg,24,Maggie ,001,2020-11-20_17h34.34.492,test2,2020.2.5,MacIntel,60,,,0,23,23,23,1
,,,,z,0.483185,,,,,,houses/images/30.jpg,houses/images/177.jpg,25,Maggie ,001,2020-11-20_17h34.34.492,test2,2020.2.5,MacIntel,60,,,0,24,24,24,1
,,,,m,0.60094,,,,,,houses/images/300.jpg,houses/images/342.jpg,26,Maggie ,001,2020-11-20_17h34.34.492,test2,2020.2.5,MacIntel,60,,,0,25,25,25,1
,,,,m,0.60111,,,,,,houses/images/201.jpg,houses/images/57.jpg,27,Maggie ,001,2020-11-20_17h34.34.492,test2,2020.2.5,MacIntel,60,,,0,26,26,26,1
,,,,m,0.50124,,,,,,houses/images/302.jpg,houses/images/186.jpg,28,Maggie ,001,2020-11-20_17h34.34.492,test2,2020.2.5,MacIntel,60,,,0,27,27,27,1
,,,,m,0.51785,,,,,,houses/images/303.jpg,houses/images/131.jpg,29,Maggie ,001,2020-11-20_17h34.34.492,test2,2020.2.5,MacIntel,60,,,0,28,28,28,1
,,,,m,0.51829,,,,,,houses/images/304.jpg,houses/images/183.jpg,30,Maggie ,001,2020-11-20_17h34.34.492,test2,2020.2.5,MacIntel,60,,,0,29,29,29,1
,,,,m,0.59965,,,,,,houses/images/305.jpg,houses/images/200.jpg,31,Maggie ,001,2020-11-20_17h34.34.492,test2,2020.2.5,MacIntel,60,,,0,30,30,30,1
,,,,z,0.35496,,,,,,houses/images/306.jpg,houses/images/94.jpg,32,Maggie ,001,2020-11-20_17h34.34.492,test2,2020.2.5,MacIntel,60,,,0,31,31,31,1
,,,,m,0.47168,,,,,,houses/images/307.jpg,houses/images/96.jpg,33,Maggie ,001,2020-11-20_17h34.34.492,test2,2020.2.5,MacIntel,60,,,0,32,32,32,1
,,,,m,0.601195,,,,,,houses/images/308.jpg,houses/images/76.jpg,34,Maggie ,001,2020-11-20_17h34.34.492,test2,2020.2.5,MacIntel,60,,,0,33,33,33,1
,,,,m,0.414765,,,,,,houses/images/309.jpg,houses/images/78.jpg,35,Maggie ,001,2020-11-20_17h34.34.492,test2,2020.2.5,MacIntel,60,,,0,34,34,34,1
,,,,m,0.494625,,,,,,houses/images/31.jpg,houses/images/76.jpg,36,Maggie ,001,2020-11-20_17h34.34.492,test2,2020.2.5,MacIntel,60,,,0,35,35,35,1
,,,,m,0.668065,,,,,,houses/images/310.jpg,houses/images/128.jpg,37,Maggie ,001,2020-11-20_17h34.34.492,test2,2020.2.5,MacIntel,60,,,0,36,36,36,1
,,,,m,0.48628,,,,,,houses/images/311.jpg,houses/images/190.jpg,38,Maggie ,001,2020-11-20_17h34.34.492,test2,2020.2.5,MacIntel,60,,,0,37,37,37,1
,,,,m,0.550605,,,,,,houses/images/312.jpg,houses/images/5.jpg,39,Maggie ,001,2020-11-20_17h34.34.492,test2,2020.2.5,MacIntel,60,,,0,38,38,38,1
,,,,m,0.70917,,,,,,houses/images/313.jpg,houses/images/188.jpg,40,Maggie ,001,2020-11-20_17h34.34.492,test2,2020.2.5,MacIntel,60,,,0,39,39,39,1
,,,,m,0.46793,,,,,,houses/images/314.jpg,houses/images/342.jpg,41,Maggie ,001,2020-11-20_17h34.34.492,test2,2020.2.5,MacIntel,60,,,0,40,40,40,1
,,,,m,0.48138,,,,,,houses/images/315.jpg,houses/images/288.jpg,42,Maggie ,001,2020-11-20_17h34.34.492,test2,2020.2.5,MacIntel,60,,,0,41,41,41,1
,,,,m,0.36589,,,,,,houses/images/316.jpg,houses/images/321.jpg,43,Maggie ,001,2020-11-20_17h34.34.492,test2,2020.2.5,MacIntel,60,,,0,42,42,42,1
,,,,m,0.382505,,,,,,houses/images/317.jpg,houses/images/82.jpg,44,Maggie ,001,2020-11-20_17h34.34.492,test2,2020.2.5,MacIntel,60,,,0,43,43,43,1
,,,,m,0.41794,,,,,,houses/images/318.jpg,houses/images/169.jpg,45,Maggie ,001,2020-11-20_17h34.34.492,test2,2020.2.5,MacIntel,60,,,0,44,44,44,1
,,,,m,0.689115,,,,,,houses/images/319.jpg,houses/images/224.jpg,46,Maggie ,001,2020-11-20_17h34.34.492,test2,2020.2.5,MacIntel,60,,,0,45,45,45,1
,,,,m,0.606985,,,,,,houses/images/32.jpg,houses/images/175.jpg,47,Maggie ,001,2020-11-20_17h34.34.492,test2,2020.2.5,MacIntel,60,,,0,46,46,46,1
,,,,m,0.68383,,,,,,houses/images/320.jpg,houses/images/247.jpg,48,Maggie ,001,2020-11-20_17h34.34.492,test2,2020.2.5,MacIntel,60,,,0,47,47,47,1
,,,,m,1.11766,,,,,,houses/images/321.jpg,houses/images/97.jpg,49,Maggie ,001,2020-11-20_17h34.34.492,test2,2020.2.5,MacIntel,60,,,0,48,48,48,1
,,,,m,0.718375,,,,,,houses/images/322.jpg,houses/images/74.jpg,50,Maggie ,001,2020-11-20_17h34.34.492,test2,2020.2.5,MacIntel,60,,,0,49,49,49,1
,,,,m,0.621325,,,,,,houses/images/323.jpg,houses/images/148.jpg,51,Maggie ,001,2020-11-20_17h34.34.492,test2,2020.2.5,MacIntel,60,,,0,50,50,50,1
,,,,m,0.496565,,,,,,houses/images/324.jpg,houses/images/313.jpg,52,Maggie ,001,2020-11-20_17h34.34.492,test2,2020.2.5,MacIntel,60,,,0,51,51,51,1
,,,,m,0.49886,,,,,,houses/images/325.jpg,houses/images/11.jpg,53,Maggie ,001,2020-11-20_17h34.34.492,test2,2020.2.5,MacIntel,60,,,0,52,52,52,1
,,,,m,0.539325,,,,,,houses/images/326.jpg,houses/images/21.jpg,54,Maggie ,001,2020-11-20_17h34.34.492,test2,2020.2.5,MacIntel,60,,,0,53,53,53,1
,,,,z,0.8936,,,,,,houses/images/327.jpg,houses/images/281.jpg,55,Maggie ,001,2020-11-20_17h34.34.492,test2,2020.2.5,MacIntel,60,,,0,54,54,54,1
,,,,m,0.585135,,,,,,houses/images/328.jpg,houses/images/172.jpg,56,Maggie ,001,2020-11-20_17h34.34.492,test2,2020.2.5,MacIntel,60,,,0,55,55,55,1
,,,,m,0.46795,,,,,,houses/images/329.jpg,houses/images/273.jpg,57,Maggie ,001,2020-11-20_17h34.34.492,test2,2020.2.5,MacIntel,60,,,0,56,56,56,1
,,,,m,0.384495,,,,,,houses/images/33.jpg,houses/images/239.jpg,58,Maggie ,001,2020-11-20_17h34.34.492,test2,2020.2.5,MacIntel,60,,,0,57,57,57,1
,,,,m,0.45184,,,,,,houses/images/330.jpg,houses/images/333.jpg,59,Maggie ,001,2020-11-20_17h34.34.492,test2,2020.2.5,MacIntel,60,,,0,58,58,58,1
,,,,m,0.612385,,,,,,houses/images/331.jpg,houses/images/361.jpg,60,Maggie ,001,2020-11-20_17h34.34.492,test2,2020.2.5,MacIntel,60,,,0,59,59,59,1
,,,,m,0.63384,,,,,,houses/images/332.jpg,houses/images/91.jpg,61,Maggie ,001,2020-11-20_17h34.34.492,test2,2020.2.5,MacIntel,60,,,0,60,60,60,1
,,,,m,0.41471,,,,,,houses/images/333.jpg,houses/images/158.jpg,62,Maggie ,001,2020-11-20_17h34.34.492,test2,2020.2.5,MacIntel,60,,,0,61,61,61,1
,,,,m,0.717965,,,,,,houses/images/334.jpg,houses/images/10.jpg,63,Maggie ,001,2020-11-20_17h34.34.492,test2,2020.2.5,MacIntel,60,,,0,62,62,62,1
,,,,z,0.752265,,,,,,houses/images/335.jpg,houses/images/331.jpg,64,Maggie ,001,2020-11-20_17h34.34.492,test2,2020.2.5,MacIntel,60,,,0,63,63,63,1
,,,,z,0.96848,,,,,,houses/images/336.jpg,houses/images/171.jpg,65,Maggie ,001,2020-11-20_17h34.34.492,test2,2020.2.5,MacIntel,60,,,0,64,64,64,1
,,,,z,0.73782,,,,,,houses/images/337.jpg,houses/images/226.jpg,66,Maggie ,001,2020-11-20_17h34.34.492,test2,2020.2.5,MacIntel,60,,,0,65,65,65,1
,,,,m,0.5631,,,,,,houses/images/238.jpg,houses/images/214.jpg,67,Maggie ,001,2020-11-20_17h34.34.492,test2,2020.2.5,MacIntel,60,,,0,66,66,66,1
,,,,z,0.58448,,,,,,houses/images/239.jpg,houses/images/130.jpg,68,Maggie ,001,2020-11-20_17h34.34.492,test2,2020.2.5,MacIntel,60,,,0,67,67,67,1
,,,,m,0.501385,,,,,,houses/images/34.jpg,houses/images/85.jpg,69,Maggie ,001,2020-11-20_17h34.34.492,test2,2020.2.5,MacIntel,60,,,0,68,68,68,1
,,,,z,0.382145,,,,,,houses/images/340.jpg,houses/images/248.jpg,70,Maggie ,001,2020-11-20_17h34.34.492,test2,2020.2.5,MacIntel,60,,,0,69,69,69,1
,,,,m,0.349635,,,,,,houses/images/341.jpg,houses/images/215.jpg,71,Maggie ,001,2020-11-20_17h34.34.492,test2,2020.2.5,MacIntel,60,,,0,70,70,70,1
,,,,z,0.27745,,,,,,houses/images/342.jpg,houses/images/155.jpg,72,Maggie ,001,2020-11-20_17h34.34.492,test2,2020.2.5,MacIntel,60,,,0,71,71,71,1
,,,,m,0.548625,,,,,,houses/images/343.jpg,houses/images/193.jpg,73,Maggie ,001,2020-11-20_17h34.34.492,test2,2020.2.5,MacIntel,60,,,0,72,72,72,1
,,,,z,0.500745,,,,,,houses/images/344.jpg,houses/images/324.jpg,74,Maggie ,001,2020-11-20_17h34.34.492,test2,2020.2.5,MacIntel,60,,,0,73,73,73,1
,,,,m,0.39481,,,,,,houses/images/345.jpg,houses/images/86.jpg,75,Maggie ,001,2020-11-20_17h34.34.492,test2,2020.2.5,MacIntel,60,,,0,74,74,74,1
,,,,z,0.28628,,,,,,houses/images/246.jpg,houses/images/295.jpg,76,Maggie ,001,2020-11-20_17h34.34.492,test2,2020.2.5,MacIntel,60,,,0,75,75,75,1
,,,,m,0.3532,,,,,,houses/images/347.jpg,houses/images/292.jpg,77,Maggie ,001,2020-11-20_17h34.34.492,test2,2020.2.5,MacIntel,60,,,0,76,76,76,1
,,,,z,0.271005,,,,,,houses/images/348.jpg,houses/images/55.jpg,78,Maggie ,001,2020-11-20_17h34.34.492,test2,2020.2.5,MacIntel,60,,,0,77,77,77,1
,,,,m,0.320235,,,,,,houses/images/349.jpg,houses/images/1.jpg,79,Maggie ,001,2020-11-20_17h34.34.492,test2,2020.2.5,MacIntel,60,,,0,78,78,78,1
,,,,z,0.251355,,,,,,houses/images/35.jpg,houses/images/73.jpg,80,Maggie ,001,2020-11-20_17h34.34.492,test2,2020.2.5,MacIntel,60,,,0,79,79,79,1
,,,,m,0.43231,,,,,,houses/images/350.jpg,houses/images/44.jpg,81,Maggie ,001,2020-11-20_17h34.34.492,test2,2020.2.5,MacIntel,60,,,0,80,80,80,1
,,,,z,0.302145,,,,,,houses/images/351.jpg,houses/images/6.jpg,82,Maggie ,001,2020-11-20_17h34.34.492,test2,2020.2.5,MacIntel,60,,,0,81,81,81,1
,,,,m,0.41469,,,,,,houses/images/352.jpg,houses/images/20.jpg,83,Maggie ,001,2020-11-20_17h34.34.492,test2,2020.2.5,MacIntel,60,,,0,82,82,82,1
,,,,z,0.16484,,,,,,houses/images/353.jpg,houses/images/18.jpg,84,Maggie ,001,2020-11-20_17h34.34.492,test2,2020.2.5,MacIntel,60,,,0,83,83,83,1
,,,,m,0.351595,,,,,,houses/images/354.jpg,houses/images/347.jpg,85,Maggie ,001,2020-11-20_17h34.34.492,test2,2020.2.5,MacIntel,60,,,0,84,84,84,1
,,,,z,0.19744,,,,,,houses/images/355.jpg,houses/images/27.jpg,86,Maggie ,001,2020-11-20_17h34.34.492,test2,2020.2.5,MacIntel,60,,,0,85,85,85,1
,,,,z,0.654735,,,,,,houses/images/356.jpg,houses/images/276.jpg,87,Maggie ,001,2020-11-20_17h34.34.492,test2,2020.2.5,MacIntel,60,,,0,86,86,86,1
,,,,z,0.61802,,,,,,houses/images/357.jpg,houses/images/345.jpg,88,Maggie ,001,2020-11-20_17h34.34.492,test2,2020.2.5,MacIntel,60,,,0,87,87,87,1
,,,,z,0.56811,,,,,,houses/images/358.jpg,houses/images/235.jpg,89,Maggie ,001,2020-11-20_17h34.34.492,test2,2020.2.5,MacIntel,60,,,0,88,88,88,1
,,,,z,0.598415,,,,,,houses/images/359.jpg,houses/images/115.jpg,90,Maggie ,001,2020-11-20_17h34.34.492,test2,2020.2.5,MacIntel,60,,,0,89,89,89,1
,,,,z,0.467745,,,,,,houses/images/36.jpg,houses/images/310.jpg,91,Maggie ,001,2020-11-20_17h34.34.492,test2,2020.2.5,MacIntel,60,,,0,90,90,90,1
,,,,z,0.82052,,,,,,houses/images/360.jpg,houses/images/93.jpg,92,Maggie ,001,2020-11-20_17h34.34.492,test2,2020.2.5,MacIntel,60,,,0,91,91,91,1
,,,,z,0.63413,,,,,,houses/images/361.jpg,houses/images/212.jpg,93,Maggie ,001,2020-11-20_17h34.34.492,test2,2020.2.5,MacIntel,60,,,0,92,92,92,1
,,,,z,0.435445,,,,,,houses/images/62.jpg,houses/images/51.jpg,94,Maggie ,001,2020-11-20_17h34.34.492,test2,2020.2.5,MacIntel,60,,,0,93,93,93,1
,,,,z,0.497445,,,,,,houses/images/37.jpg,houses/images/108.jpg,95,Maggie ,001,2020-11-20_17h34.34.492,test2,2020.2.5,MacIntel,60,,,0,94,94,94,1
,,,,z,0.434895,,,,,,houses/images/38.jpg,houses/images/127.jpg,96,Maggie ,001,2020-11-20_17h34.34.492,test2,2020.2.5,MacIntel,60,,,0,95,95,95,1
,,,,z,0.432635,,,,,,houses/images/39.jpg,houses/images/52.jpg,97,Maggie ,001,2020-11-20_17h34.34.492,test2,2020.2.5,MacIntel,60,,,0,96,96,96,1
,,,,m,0.57258,,,,,,houses/images/4.jpg,houses/images/318.jpg,98,Maggie ,001,2020-11-20_17h34.34.492,test2,2020.2.5,MacIntel,60,,,0,97,97,97,1
,,,,z,0.60137,,,,,,houses/images/40.jpg,houses/images/201.jpg,99,Maggie ,001,2020-11-20_17h34.34.492,test2,2020.2.5,MacIntel,60,,,0,98,98,98,1
,,,,m,0.532365,,,,,,houses/images/41.jpg,houses/images/7.jpg,100,Maggie ,001,2020-11-20_17h34.34.492,test2,2020.2.5,MacIntel,60,,,0,99,99,99,1
,,,,z,0.28131,,,,,,houses/images/42.jpg,houses/images/340.jpg,101,Maggie ,001,2020-11-20_17h34.34.492,test2,2020.2.5,MacIntel,60,,,0,100,100,100,1
,,,,m,0.252855,,,,,,houses/images/43.jpg,houses/images/150.jpg,102,Maggie ,001,2020-11-20_17h34.34.492,test2,2020.2.5,MacIntel,60,,,0,101,101,101,1
,,,,z,0.15405,,,,,,houses/images/44.jpg,houses/images/246.jpg,103,Maggie ,001,2020-11-20_17h34.34.492,test2,2020.2.5,MacIntel,60,,,0,102,102,102,1
,,,,z,0.45134,,,,,,houses/images/145.jpg,houses/images/18.jpg,104,Maggie ,001,2020-11-20_17h34.34.492,test2,2020.2.5,MacIntel,60,,,0,103,103,103,1
,,,,m,0.668085,,,,,,houses/images/46.jpg,houses/images/211.jpg,105,Maggie ,001,2020-11-20_17h34.34.492,test2,2020.2.5,MacIntel,60,,,0,104,104,104,1
,,,,z,0.551525,,,,,,houses/images/47.jpg,houses/images/282.jpg,106,Maggie ,001,2020-11-20_17h34.34.492,test2,2020.2.5,MacIntel,60,,,0,105,105,105,1
,,,,m,0.584425,,,,,,houses/images/48.jpg,houses/images/145.jpg,107,Maggie ,001,2020-11-20_17h34.34.492,test2,2020.2.5,MacIntel,60,,,0,106,106,106,1
,,,,m,0.418085,,,,,,houses/images/49.jpg,houses/images/135.jpg,108,Maggie ,001,2020-11-20_17h34.34.492,test2,2020.2.5,MacIntel,60,,,0,107,107,107,1
,,,,m,0.53356,,,,,,houses/images/5.jpg,houses/images/59.jpg,109,Maggie ,001,2020-11-20_17h34.34.492,test2,2020.2.5,MacIntel,60,,,0,108,108,108,1
,,,,m,0.45272,,,,,,houses/images/50.jpg,houses/images/164.jpg,110,Maggie ,001,2020-11-20_17h34.34.492,test2,2020.2.5,MacIntel,60,,,0,109,109,109,1
,,,,m,0.38183,,,,,,houses/images/51.jpg,houses/images/42.jpg,111,Maggie ,001,2020-11-20_17h34.34.492,test2,2020.2.5,MacIntel,60,,,0,110,110,110,1
,,,,m,0.40136,,,,,,houses/images/52.jpg,houses/images/32.jpg,112,Maggie ,001,2020-11-20_17h34.34.492,test2,2020.2.5,MacIntel,60,,,0,111,111,111,1
,,,,m,0.401345,,,,,,houses/images/53.jpg,houses/images/357.jpg,113,Maggie ,001,2020-11-20_17h34.34.492,test2,2020.2.5,MacIntel,60,,,0,112,112,112,1
,,,,m,0.42283,,,,,,houses/images/54.jpg,houses/images/305.jpg,114,Maggie ,001,2020-11-20_17h34.34.492,test2,2020.2.5,MacIntel,60,,,0,113,113,113,1
,,,,m,0.399,,,,,,houses/images/55.jpg,houses/images/352.jpg,115,Maggie ,001,2020-11-20_17h34.34.492,test2,2020.2.5,MacIntel,60,,,0,114,114,114,1
,,,,m,0.38756,,,,,,houses/images/56.jpg,houses/images/273.jpg,116,Maggie ,001,2020-11-20_17h34.34.492,test2,2020.2.5,MacIntel,60,,,0,115,115,115,1
,,,,m,0.36233,,,,,,houses/images/57.jpg,houses/images/143.jpg,117,Maggie ,001,2020-11-20_17h34.34.492,test2,2020.2.5,MacIntel,60,,,0,116,116,116,1
,,,,m,0.367335,,,,,,houses/images/58.jpg,houses/images/95.jpg,118,Maggie ,001,2020-11-20_17h34.34.492,test2,2020.2.5,MacIntel,60,,,0,117,117,117,1
,,,,m,0.36801,,,,,,houses/images/59.jpg,houses/images/244.jpg,119,Maggie ,001,2020-11-20_17h34.34.492,test2,2020.2.5,MacIntel,60,,,0,118,118,118,1
,,,,m,0.53461,,,,,,houses/images/6.jpg,houses/images/202.jpg,120,Maggie ,001,2020-11-20_17h34.34.492,test2,2020.2.5,MacIntel,60,,,0,119,119,119,1
,,,,m,0.417625,,,,,,houses/images/60.jpg,houses/images/203.jpg,121,Maggie ,001,2020-11-20_17h34.34.492,test2,2020.2.5,MacIntel,60,,,0,120,120,120,1
,,,,m,0.72988,,,,,,houses/images/61.jpg,houses/images/123.jpg,122,Maggie ,001,2020-11-20_17h34.34.492,test2,2020.2.5,MacIntel,60,,,0,121,121,121,1
,,,,m,1.2216,,,,,,houses/images/62.jpg,houses/images/353.jpg,123,Maggie ,001,2020-11-20_17h34.34.492,test2,2020.2.5,MacIntel,60,,,0,122,122,122,1
,,,,m,1.15136,,,,,,houses/images/63.jpg,houses/images/281.jpg,124,Maggie ,001,2020-11-20_17h34.34.492,test2,2020.2.5,MacIntel,60,,,0,123,123,123,1
,,,,z,0.934765,,,,,,houses/images/64.jpg,houses/images/280.jpg,125,Maggie ,001,2020-11-20_17h34.34.492,test2,2020.2.5,MacIntel,60,,,0,124,124,124,1
,,,,m,0.765895,,,,,,houses/images/65.jpg,houses/images/309.jpg,126,Maggie ,001,2020-11-20_17h34.34.492,test2,2020.2.5,MacIntel,60,,,0,125,125,125,1
,,,,m,0.748055,,,,,,houses/images/66.jpg,houses/images/302.jpg,127,Maggie ,001,2020-11-20_17h34.34.492,test2,2020.2.5,MacIntel,60,,,0,126,126,126,1
,,,,m,0.35114,,,,,,houses/images/67.jpg,houses/images/300.jpg,128,Maggie ,001,2020-11-20_17h34.34.492,test2,2020.2.5,MacIntel,60,,,0,127,127,127,1
,,,,m,0.33734,,,,,,houses/images/68.jpg,houses/images/328.jpg,129,Maggie ,001,2020-11-20_17h34.34.492,test2,2020.2.5,MacIntel,60,,,0,128,128,128,1
,,,,m,0.279065,,,,,,houses/images/69.jpg,houses/images/114.jpg,130,Maggie ,001,2020-11-20_17h34.34.492,test2,2020.2.5,MacIntel,60,,,0,129,129,129,1
,,,,m,0.218625,,,,,,houses/images/7.jpg,houses/images/31.jpg,131,Maggie ,001,2020-11-20_17h34.34.492,test2,2020.2.5,MacIntel,60,,,0,130,130,130,1
,,,,m,0.38812,,,,,,houses/images/70.jpg,houses/images/54.jpg,132,Maggie ,001,2020-11-20_17h34.34.492,test2,2020.2.5,MacIntel,60,,,0,131,131,131,1
,,,,m,0.3182,,,,,,houses/images/71.jpg,houses/images/293.jpg,133,Maggie ,001,2020-11-20_17h34.34.492,test2,2020.2.5,MacIntel,60,,,0,132,132,132,1
,,,,m,0.32972,,,,,,houses/images/72.jpg,houses/images/37.jpg,134,Maggie ,001,2020-11-20_17h34.34.492,test2,2020.2.5,MacIntel,60,,,0,133,133,133,1
,,,,m,0.263515,,,,,,houses/images/73.jpg,houses/images/230.jpg,135,Maggie ,001,2020-11-20_17h34.34.492,test2,2020.2.5,MacIntel,60,,,0,134,134,134,1
,,,,m,0.228315,,,,,,houses/images/74.jpg,houses/images/88.jpg,136,Maggie ,001,2020-11-20_17h34.34.492,test2,2020.2.5,MacIntel,60,,,0,135,135,135,1
,,,,m,0.230785,,,,,,houses/images/75.jpg,houses/images/161.jpg,137,Maggie ,001,2020-11-20_17h34.34.492,test2,2020.2.5,MacIntel,60,,,0,136,136,136,1
,,,,m,0.204055,,,,,,houses/images/76.jpg,houses/images/354.jpg,138,Maggie ,001,2020-11-20_17h34.34.492,test2,2020.2.5,MacIntel,60,,,0,137,137,137,1
,,,,m,0.220415,,,,,,houses/images/77.jpg,houses/images/251.jpg,139,Maggie ,001,2020-11-20_17h34.34.492,test2,2020.2.5,MacIntel,60,,,0,138,138,138,1
,,,,m,0.368955,,,,,,houses/images/78.jpg,houses/images/143.jpg,140,Maggie ,001,2020-11-20_17h34.34.492,test2,2020.2.5,MacIntel,60,,,0,139,139,139,1
,,,,m,0.268855,,,,,,houses/images/79.jpg,houses/images/335.jpg,141,Maggie ,001,2020-11-20_17h34.34.492,test2,2020.2.5,MacIntel,60,,,0,140,140,140,1
,,,,m,0.250185,,,,,,houses/images/8.jpg,houses/images/231.jpg,142,Maggie ,001,2020-11-20_17h34.34.492,test2,2020.2.5,MacIntel,60,,,0,141,141,141,1
,,,,m,0.249135,,,,,,houses/images/80.jpg,houses/images/69.jpg,143,Maggie ,001,2020-11-20_17h34.34.492,test2,2020.2.5,MacIntel,60,,,0,142,142,142,1
,,,,m,0.25505,,,,,,houses/images/81.jpg,houses/images/92.jpg,144,Maggie ,001,2020-11-20_17h34.34.492,test2,2020.2.5,MacIntel,60,,,0,143,143,143,1
,,,,m,0.253285,,,,,,houses/images/82.jpg,houses/images/221.jpg,145,Maggie ,001,2020-11-20_17h34.34.492,test2,2020.2.5,MacIntel,60,,,0,144,144,144,1
,,,,m,0.233575,,,,,,houses/images/83.jpg,houses/images/196.jpg,146,Maggie ,001,2020-11-20_17h34.34.492,test2,2020.2.5,MacIntel,60,,,0,145,145,145,1
,,,,m,0.24991,,,,,,houses/images/84.jpg,houses/images/53.jpg,147,Maggie ,001,2020-11-20_17h34.34.492,test2,2020.2.5,MacIntel,60,,,0,146,146,146,1
,,,,m,0.251345,,,,,,houses/images/85.jpg,houses/images/166.jpg,148,Maggie ,001,2020-11-20_17h34.34.492,test2,2020.2.5,MacIntel,60,,,0,147,147,147,1
,,,,m,0.235375,,,,,,houses/images/86.jpg,houses/images/266.jpg,149,Maggie ,001,2020-11-20_17h34.34.492,test2,2020.2.5,MacIntel,60,,,0,148,148,148,1
,,,,m,0.220205,,,,,,houses/images/87.jpg,houses/images/355.jpg,150,Maggie ,001,2020-11-20_17h34.34.492,test2,2020.2.5,MacIntel,60,,,0,149,149,149,1
,,,,m,0.234935,,,,,,houses/images/88.jpg,houses/images/206.jpg,151,Maggie ,001,2020-11-20_17h34.34.492,test2,2020.2.5,MacIntel,60,,,0,150,150,150,1
,,,,m,0.469105,,,,,,houses/images/89.jpg,houses/images/241.jpg,152,Maggie ,001,2020-11-20_17h34.34.492,test2,2020.2.5,MacIntel,60,,,0,151,151,151,1
,,,,z,0.238255,,,,,,houses/images/9.jpg,houses/images/147.jpg,153,Maggie ,001,2020-11-20_17h34.34.492,test2,2020.2.5,MacIntel,60,,,0,152,152,152,1
,,,,m,0.28383,,,,,,houses/images/90.jpg,houses/images/117.jpg,154,Maggie ,001,2020-11-20_17h34.34.492,test2,2020.2.5,MacIntel,60,,,0,153,153,153,1
,,,,m,0.28455,,,,,,houses/images/91.jpg,houses/images/34.jpg,155,Maggie ,001,2020-11-20_17h34.34.492,test2,2020.2.5,MacIntel,60,,,0,154,154,154,1
,,,,m,0.354295,,,,,,houses/images/92.jpg,houses/images/105.jpg,156,Maggie ,001,2020-11-20_17h34.34.492,test2,2020.2.5,MacIntel,60,,,0,155,155,155,1
,,,,m,0.318455,,,,,,houses/images/93.jpg,houses/images/249.jpg,157,Maggie ,001,2020-11-20_17h34.34.492,test2,2020.2.5,MacIntel,60,,,0,156,156,156,1
,,,,m,0.235715,,,,,,houses/images/94.jpg,houses/images/265.jpg,158,Maggie ,001,2020-11-20_17h34.34.492,test2,2020.2.5,MacIntel,60,,,0,157,157,157,1
,,,,m,0.2958,,,,,,houses/images/95.jpg,houses/images/65.jpg,159,Maggie ,001,2020-11-20_17h34.34.492,test2,2020.2.5,MacIntel,60,,,0,158,158,158,1
,,,,m,0.1892,,,,,,houses/images/96.jpg,houses/images/83.jpg,160,Maggie ,001,2020-11-20_17h34.34.492,test2,2020.2.5,MacIntel,60,,,0,159,159,159,1
,,,,m,0.185465,,,,,,houses/images/97.jpg,houses/images/165.jpg,161,Maggie ,001,2020-11-20_17h34.34.492,test2,2020.2.5,MacIntel,60,,,0,160,160,160,1
,,,,m,0.187835,,,,,,houses/images/98.jpg,houses/images/280.jpg,162,Maggie ,001,2020-11-20_17h34.34.492,test2,2020.2.5,MacIntel,60,,,0,161,161,161,1
,,,,m,0.254535,,,,,,houses/images/199.jpg,houses/images/278.jpg,163,Maggie ,001,2020-11-20_17h34.34.492,test2,2020.2.5,MacIntel,60,,,0,162,162,162,1
,,,,m,0.35577,,,,,,houses/images/0.jpg,houses/images/297.jpg,164,Maggie ,001,2020-11-20_17h34.34.492,test2,2020.2.5,MacIntel,60,,,0,163,163,163,1
,,,,m,0.401025,,,,,,houses/images/1.jpg,houses/images/225.jpg,165,Maggie ,001,2020-11-20_17h34.34.492,test2,2020.2.5,MacIntel,60,,,0,164,164,164,1
,,,,m,0.351555,,,,,,houses/images/10.jpg,houses/images/41.jpg,166,Maggie ,001,2020-11-20_17h34.34.492,test2,2020.2.5,MacIntel,60,,,0,165,165,165,1
,,,,m,0.301915,,,,,,houses/images/100.jpg,houses/images/19.jpg,167,Maggie ,001,2020-11-20_17h34.34.492,test2,2020.2.5,MacIntel,60,,,0,166,166,166,1
,,,,m,0.318295,,,,,,houses/images/101.jpg,houses/images/189.jpg,168,Maggie ,001,2020-11-20_17h34.34.492,test2,2020.2.5,MacIntel,60,,,0,167,167,167,1
,,,,m,0.284805,,,,,,houses/images/102.jpg,houses/images/141.jpg,169,Maggie ,001,2020-11-20_17h34.34.492,test2,2020.2.5,MacIntel,60,,,0,168,168,168,1
,,,,m,0.295155,,,,,,houses/images/103.jpg,houses/images/212.jpg,170,Maggie ,001,2020-11-20_17h34.34.492,test2,2020.2.5,MacIntel,60,,,0,169,169,169,1
,,,,m,0.31498,,,,,,houses/images/104.jpg,houses/images/134.jpg,171,Maggie ,001,2020-11-20_17h34.34.492,test2,2020.2.5,MacIntel,60,,,0,170,170,170,1
,,,,m,0.31275,,,,,,houses/images/105.jpg,houses/images/13.jpg,172,Maggie ,001,2020-11-20_17h34.34.492,test2,2020.2.5,MacIntel,60,,,0,171,171,171,1
,,,,m,0.275515,,,,,,houses/images/106.jpg,houses/images/258.jpg,173,Maggie ,001,2020-11-20_17h34.34.492,test2,2020.2.5,MacIntel,60,,,0,172,172,172,1
,,,,m,0.305,,,,,,houses/images/107.jpg,houses/images/14.jpg,174,Maggie ,001,2020-11-20_17h34.34.492,test2,2020.2.5,MacIntel,60,,,0,173,173,173,1
,,,,m,0.33434,,,,,,houses/images/108.jpg,houses/images/9.jpg,175,Maggie ,001,2020-11-20_17h34.34.492,test2,2020.2.5,MacIntel,60,,,0,174,174,174,1
,,,,m,0.26781,,,,,,houses/images/109.jpg,houses/images/106.jpg,176,Maggie ,001,2020-11-20_17h34.34.492,test2,2020.2.5,MacIntel,60,,,0,175,175,175,1
,,,,m,0.28684,,,,,,houses/images/11.jpg,houses/images/268.jpg,177,Maggie ,001,2020-11-20_17h34.34.492,test2,2020.2.5,MacIntel,60,,,0,176,176,176,1
,,,,m,0.301225,,,,,,houses/images/210.jpg,houses/images/330.jpg,178,Maggie ,001,2020-11-20_17h34.34.492,test2,2020.2.5,MacIntel,60,,,0,177,177,177,1
,,,,m,0.28464,,,,,,houses/images/111.jpg,houses/images/343.jpg,179,Maggie ,001,2020-11-20_17h34.34.492,test2,2020.2.5,MacIntel,60,,,0,178,178,178,1
,,,,m,0.317765,,,,,,houses/images/112.jpg,houses/images/225.jpg,180,Maggie ,001,2020-11-20_17h34.34.492,test2,2020.2.5,MacIntel,60,,,0,179,179,179,1
,,,,m,0.285725,,,,,,houses/images/113.jpg,houses/images/174.jpg,181,Maggie ,001,2020-11-20_17h34.34.492,test2,2020.2.5,MacIntel,60,,,0,180,180,180,1
,,,,m,0.30825,,,,,,houses/images/114.jpg,houses/images/25.jpg,182,Maggie ,001,2020-11-20_17h34.34.492,test2,2020.2.5,MacIntel,60,,,0,181,181,181,1
,,,,z,0.194915,,,,,,houses/images/115.jpg,houses/images/100.jpg,183,Maggie ,001,2020-11-20_17h34.34.492,test2,2020.2.5,MacIntel,60,,,0,182,182,182,1
,,,,z,0.49814,,,,,,houses/images/116.jpg,houses/images/48.jpg,184,Maggie ,001,2020-11-20_17h34.34.492,test2,2020.2.5,MacIntel,60,,,0,183,183,183,1
,,,,z,0.384525,,,,,,houses/images/117.jpg,houses/images/296.jpg,185,Maggie ,001,2020-11-20_17h34.34.492,test2,2020.2.5,MacIntel,60,,,0,184,184,184,1
,,,,m,0.480095,,,,,,houses/images/118.jpg,houses/images/15.jpg,186,Maggie ,001,2020-11-20_17h34.34.492,test2,2020.2.5,MacIntel,60,,,0,185,185,185,1
,,,,m,0.33863,,,,,,houses/images/119.jpg,houses/images/252.jpg,187,Maggie ,001,2020-11-20_17h34.34.492,test2,2020.2.5,MacIntel,60,,,0,186,186,186,1
,,,,m,0.47045,,,,,,houses/images/12.jpg,houses/images/290.jpg,188,Maggie ,001,2020-11-20_17h34.34.492,test2,2020.2.5,MacIntel,60,,,0,187,187,187,1
,,,,m,0.38623,,,,,,houses/images/120.jpg,houses/images/236.jpg,189,Maggie ,001,2020-11-20_17h34.34.492,test2,2020.2.5,MacIntel,60,,,0,188,188,188,1
,,,,z,0.138875,,,,,,houses/images/121.jpg,houses/images/260.jpg,190,Maggie ,001,2020-11-20_17h34.34.492,test2,2020.2.5,MacIntel,60,,,0,189,189,189,1
,,,,m,0.31987,,,,,,houses/images/122.jpg,houses/images/56.jpg,191,Maggie ,001,2020-11-20_17h34.34.492,test2,2020.2.5,MacIntel,60,,,0,190,190,190,1
,,,,z,0.26806,,,,,,houses/images/123.jpg,houses/images/336.jpg,192,Maggie ,001,2020-11-20_17h34.34.492,test2,2020.2.5,MacIntel,60,,,0,191,191,191,1
,,,,z,0.51828,,,,,,houses/images/124.jpg,houses/images/39.jpg,193,Maggie ,001,2020-11-20_17h34.34.492,test2,2020.2.5,MacIntel,60,,,0,192,192,192,1
,,,,z,0.40957,,,,,,houses/images/225.jpg,houses/images/302.jpg,194,Maggie ,001,2020-11-20_17h34.34.492,test2,2020.2.5,MacIntel,60,,,0,193,193,193,1
,,,,z,0.38447,,,,,,houses/images/226.jpg,houses/images/207.jpg,195,Maggie ,001,2020-11-20_17h34.34.492,test2,2020.2.5,MacIntel,60,,,0,194,194,194,1
,,,,z,0.35989,,,,,,houses/images/127.jpg,houses/images/348.jpg,196,Maggie ,001,2020-11-20_17h34.34.492,test2,2020.2.5,MacIntel,60,,,0,195,195,195,1
,,,,z,0.367375,,,,,,houses/images/128.jpg,houses/images/151.jpg,197,Maggie ,001,2020-11-20_17h34.34.492,test2,2020.2.5,MacIntel,60,,,0,196,196,196,1
,,,,z,0.38373,,,,,,houses/images/129.jpg,houses/images/315.jpg,198,Maggie ,001,2020-11-20_17h34.34.492,test2,2020.2.5,MacIntel,60,,,0,197,197,197,1
,,,,m,0.27087,,,,,,houses/images/13.jpg,houses/images/63.jpg,199,Maggie ,001,2020-11-20_17h34.34.492,test2,2020.2.5,MacIntel,60,,,0,198,198,198,1
,,,,z,0.39493,,,,,,houses/images/307.jpg,houses/images/172.jpg,200,Maggie ,001,2020-11-20_17h34.34.492,test2,2020.2.5,MacIntel,60,,,0,199,199,199,1
