key_resp.keys,key_resp.rt,key_resp_3.keys,key_resp_3.rt,key_resp_2.keys,key_resp_2.rt,trials.thisRepN,trials.thisTrialN,trials.thisN,trials.thisIndex,trials.ran,image_left,image_right,trial_num,participant,session,date,expName,psychopyVersion,OS,frameRate
space,12.99764,space,8.63139,z,22.87913,0,0,0,0,1,houses/images/0.jpg,houses/images/349.jpg,1,ningtong,001,2020-11-19_14h21.27.903,test2,2020.2.5,MacIntel,60
,,,,z,6.778715,0,1,1,1,1,houses/images/1.jpg,houses/images/194.jpg,2,ningtong,001,2020-11-19_14h21.27.903,test2,2020.2.5,MacIntel,60
,,,,m,15.89602,0,2,2,2,1,houses/images/10.jpg,houses/images/159.jpg,3,ningtong,001,2020-11-19_14h21.27.903,test2,2020.2.5,MacIntel,60
,,,,m,10.8971,0,3,3,3,1,houses/images/100.jpg,houses/images/42.jpg,4,ningtong,001,2020-11-19_14h21.27.903,test2,2020.2.5,MacIntel,60
,,,,m,10.093865,0,4,4,4,1,houses/images/101.jpg,houses/images/240.jpg,5,ningtong,001,2020-11-19_14h21.27.903,test2,2020.2.5,MacIntel,60
,,,,z,10.73266,0,5,5,5,1,houses/images/102.jpg,houses/images/201.jpg,6,ningtong,001,2020-11-19_14h21.27.903,test2,2020.2.5,MacIntel,60
,,,,z,1.524105,0,6,6,6,1,houses/images/103.jpg,houses/images/223.jpg,7,ningtong,001,2020-11-19_14h21.27.903,test2,2020.2.5,MacIntel,60
,,,,m,2.391155,0,7,7,7,1,houses/images/104.jpg,houses/images/46.jpg,8,ningtong,001,2020-11-19_14h21.27.903,test2,2020.2.5,MacIntel,60
,,,,m,4.76771,0,8,8,8,1,houses/images/105.jpg,houses/images/109.jpg,9,ningtong,001,2020-11-19_14h21.27.903,test2,2020.2.5,MacIntel,60
,,,,m,3.138275,0,9,9,9,1,houses/images/106.jpg,houses/images/12.jpg,10,ningtong,001,2020-11-19_14h21.27.903,test2,2020.2.5,MacIntel,60
,,,,m,3.08829,0,10,10,10,1,houses/images/107.jpg,houses/images/358.jpg,11,ningtong,001,2020-11-19_14h21.27.903,test2,2020.2.5,MacIntel,60
,,,,z,3.53437,0,11,11,11,1,houses/images/108.jpg,houses/images/197.jpg,12,ningtong,001,2020-11-19_14h21.27.903,test2,2020.2.5,MacIntel,60
,,,,z,2.53982,0,12,12,12,1,houses/images/109.jpg,houses/images/133.jpg,13,ningtong,001,2020-11-19_14h21.27.903,test2,2020.2.5,MacIntel,60
,,,,z,2.14826,0,13,13,13,1,houses/images/11.jpg,houses/images/286.jpg,14,ningtong,001,2020-11-19_14h21.27.903,test2,2020.2.5,MacIntel,60
,,,,z,2.64898,0,14,14,14,1,houses/images/210.jpg,houses/images/33.jpg,15,ningtong,001,2020-11-19_14h21.27.903,test2,2020.2.5,MacIntel,60
,,,,z,5.41788,0,15,15,15,1,houses/images/111.jpg,houses/images/156.jpg,16,ningtong,001,2020-11-19_14h21.27.903,test2,2020.2.5,MacIntel,60
,,,,z,1.30993,0,16,16,16,1,houses/images/112.jpg,houses/images/128.jpg,17,ningtong,001,2020-11-19_14h21.27.903,test2,2020.2.5,MacIntel,60
,,,,m,3.806325,0,17,17,17,1,houses/images/113.jpg,houses/images/306.jpg,18,ningtong,001,2020-11-19_14h21.27.903,test2,2020.2.5,MacIntel,60
,,,,m,3.101455,0,18,18,18,1,houses/images/114.jpg,houses/images/272.jpg,19,ningtong,001,2020-11-19_14h21.27.903,test2,2020.2.5,MacIntel,60
,,,,m,2.254225,0,19,19,19,1,houses/images/115.jpg,houses/images/112.jpg,20,ningtong,001,2020-11-19_14h21.27.903,test2,2020.2.5,MacIntel,60
,,,,z,4.618495,0,20,20,20,1,houses/images/116.jpg,houses/images/101.jpg,21,ningtong,001,2020-11-19_14h21.27.903,test2,2020.2.5,MacIntel,60
,,,,m,2.76812,0,21,21,21,1,houses/images/117.jpg,houses/images/298.jpg,22,ningtong,001,2020-11-19_14h21.27.903,test2,2020.2.5,MacIntel,60
,,,,m,2.25061,0,22,22,22,1,houses/images/118.jpg,houses/images/80.jpg,23,ningtong,001,2020-11-19_14h21.27.903,test2,2020.2.5,MacIntel,60
,,,,m,1.41227,0,23,23,23,1,houses/images/119.jpg,houses/images/329.jpg,24,ningtong,001,2020-11-19_14h21.27.903,test2,2020.2.5,MacIntel,60
,,,,m,35.618185,0,24,24,24,1,houses/images/12.jpg,houses/images/320.jpg,25,ningtong,001,2020-11-19_14h21.27.903,test2,2020.2.5,MacIntel,60
,,,,z,1.014945,0,25,25,25,1,houses/images/120.jpg,houses/images/24.jpg,26,ningtong,001,2020-11-19_14h21.27.903,test2,2020.2.5,MacIntel,60
,,,,z,1.256495,0,26,26,26,1,houses/images/121.jpg,houses/images/341.jpg,27,ningtong,001,2020-11-19_14h21.27.903,test2,2020.2.5,MacIntel,60
,,,,z,6.60462,0,27,27,27,1,houses/images/122.jpg,houses/images/38.jpg,28,ningtong,001,2020-11-19_14h21.27.903,test2,2020.2.5,MacIntel,60
,,,,z,3.98982,0,28,28,28,1,houses/images/123.jpg,houses/images/98.jpg,29,ningtong,001,2020-11-19_14h21.27.903,test2,2020.2.5,MacIntel,60
,,,,z,4.350295,0,29,29,29,1,houses/images/124.jpg,houses/images/213.jpg,30,ningtong,001,2020-11-19_14h21.27.903,test2,2020.2.5,MacIntel,60
,,,,z,1.81292,0,30,30,30,1,houses/images/225.jpg,houses/images/208.jpg,31,ningtong,001,2020-11-19_14h21.27.903,test2,2020.2.5,MacIntel,60
,,,,z,1.7384,0,31,31,31,1,houses/images/226.jpg,houses/images/210.jpg,32,ningtong,001,2020-11-19_14h21.27.903,test2,2020.2.5,MacIntel,60
,,,,z,0.935115,0,32,32,32,1,houses/images/127.jpg,houses/images/90.jpg,33,ningtong,001,2020-11-19_14h21.27.903,test2,2020.2.5,MacIntel,60
,,,,z,5.40872,0,33,33,33,1,houses/images/128.jpg,houses/images/113.jpg,34,ningtong,001,2020-11-19_14h21.27.903,test2,2020.2.5,MacIntel,60
,,,,m,1.335335,0,34,34,34,1,houses/images/129.jpg,houses/images/232.jpg,35,ningtong,001,2020-11-19_14h21.27.903,test2,2020.2.5,MacIntel,60
,,,,z,4.280695,0,35,35,35,1,houses/images/13.jpg,houses/images/359.jpg,36,ningtong,001,2020-11-19_14h21.27.903,test2,2020.2.5,MacIntel,60
,,,,z,1.682645,0,36,36,36,1,houses/images/130.jpg,houses/images/187.jpg,37,ningtong,001,2020-11-19_14h21.27.903,test2,2020.2.5,MacIntel,60
,,,,z,1.6022,0,37,37,37,1,houses/images/131.jpg,houses/images/275.jpg,38,ningtong,001,2020-11-19_14h21.27.903,test2,2020.2.5,MacIntel,60
,,,,z,2.202045,0,38,38,38,1,houses/images/132.jpg,houses/images/162.jpg,39,ningtong,001,2020-11-19_14h21.27.903,test2,2020.2.5,MacIntel,60
,,,,m,1.426965,0,39,39,39,1,houses/images/133.jpg,houses/images/311.jpg,40,ningtong,001,2020-11-19_14h21.27.903,test2,2020.2.5,MacIntel,60
,,,,m,1.6077,0,40,40,40,1,houses/images/134.jpg,houses/images/277.jpg,41,ningtong,001,2020-11-19_14h21.27.903,test2,2020.2.5,MacIntel,60
,,,,m,12.30533,0,41,41,41,1,houses/images/135.jpg,houses/images/71.jpg,42,ningtong,001,2020-11-19_14h21.27.903,test2,2020.2.5,MacIntel,60
,,,,z,2.717945,0,42,42,42,1,houses/images/236.jpg,houses/images/72.jpg,43,ningtong,001,2020-11-19_14h21.27.903,test2,2020.2.5,MacIntel,60
,,,,z,1.7938,0,43,43,43,1,houses/images/137.jpg,houses/images/246.jpg,44,ningtong,001,2020-11-19_14h21.27.903,test2,2020.2.5,MacIntel,60
,,,,m,4.51729,0,44,44,44,1,houses/images/138.jpg,houses/images/174.jpg,45,ningtong,001,2020-11-19_14h21.27.903,test2,2020.2.5,MacIntel,60
,,,,z,7.367735,0,45,45,45,1,houses/images/239.jpg,houses/images/292.jpg,46,ningtong,001,2020-11-19_14h21.27.903,test2,2020.2.5,MacIntel,60
,,,,m,1.05157,0,46,46,46,1,houses/images/14.jpg,houses/images/194.jpg,47,ningtong,001,2020-11-19_14h21.27.903,test2,2020.2.5,MacIntel,60
,,,,z,1.424035,0,47,47,47,1,houses/images/240.jpg,houses/images/180.jpg,48,ningtong,001,2020-11-19_14h21.27.903,test2,2020.2.5,MacIntel,60
,,,,m,2.250435,0,48,48,48,1,houses/images/141.jpg,houses/images/262.jpg,49,ningtong,001,2020-11-19_14h21.27.903,test2,2020.2.5,MacIntel,60
,,,,z,5.835,0,49,49,49,1,houses/images/42.jpg,houses/images/118.jpg,50,ningtong,001,2020-11-19_14h21.27.903,test2,2020.2.5,MacIntel,60
,,,,m,4.527395,0,50,50,50,1,houses/images/143.jpg,houses/images/316.jpg,51,ningtong,001,2020-11-19_14h21.27.903,test2,2020.2.5,MacIntel,60
,,,,m,4.63108,0,51,51,51,1,houses/images/144.jpg,houses/images/29.jpg,52,ningtong,001,2020-11-19_14h21.27.903,test2,2020.2.5,MacIntel,60
,,,,z,3.018875,0,52,52,52,1,houses/images/145.jpg,houses/images/146.jpg,53,ningtong,001,2020-11-19_14h21.27.903,test2,2020.2.5,MacIntel,60
,,,,z,1.976,0,53,53,53,1,houses/images/146.jpg,houses/images/342.jpg,54,ningtong,001,2020-11-19_14h21.27.903,test2,2020.2.5,MacIntel,60
,,,,m,1.32593,0,54,54,54,1,houses/images/147.jpg,houses/images/120.jpg,55,ningtong,001,2020-11-19_14h21.27.903,test2,2020.2.5,MacIntel,60
,,,,m,3.42371,0,55,55,55,1,houses/images/148.jpg,houses/images/204.jpg,56,ningtong,001,2020-11-19_14h21.27.903,test2,2020.2.5,MacIntel,60
,,,,m,1.779665,0,56,56,56,1,houses/images/149.jpg,houses/images/292.jpg,57,ningtong,001,2020-11-19_14h21.27.903,test2,2020.2.5,MacIntel,60
,,,,m,4.25997,0,57,57,57,1,houses/images/15.jpg,houses/images/191.jpg,58,ningtong,001,2020-11-19_14h21.27.903,test2,2020.2.5,MacIntel,60
,,,,m,4.30014,0,58,58,58,1,houses/images/150.jpg,houses/images/318.jpg,59,ningtong,001,2020-11-19_14h21.27.903,test2,2020.2.5,MacIntel,60
,,,,m,1.435205,0,59,59,59,1,houses/images/151.jpg,houses/images/255.jpg,60,ningtong,001,2020-11-19_14h21.27.903,test2,2020.2.5,MacIntel,60
,,,,z,6.15082,0,60,60,60,1,houses/images/152.jpg,houses/images/261.jpg,61,ningtong,001,2020-11-19_14h21.27.903,test2,2020.2.5,MacIntel,60
,,,,m,1.018095,0,61,61,61,1,houses/images/253.jpg,houses/images/129.jpg,62,ningtong,001,2020-11-19_14h21.27.903,test2,2020.2.5,MacIntel,60
,,,,m,2.034585,0,62,62,62,1,houses/images/154.jpg,houses/images/36.jpg,63,ningtong,001,2020-11-19_14h21.27.903,test2,2020.2.5,MacIntel,60
,,,,m,5.51068,0,63,63,63,1,houses/images/155.jpg,houses/images/210.jpg,64,ningtong,001,2020-11-19_14h21.27.903,test2,2020.2.5,MacIntel,60
,,,,m,4.86761,0,64,64,64,1,houses/images/156.jpg,houses/images/132.jpg,65,ningtong,001,2020-11-19_14h21.27.903,test2,2020.2.5,MacIntel,60
,,,,z,2.201675,0,65,65,65,1,houses/images/157.jpg,houses/images/70.jpg,66,ningtong,001,2020-11-19_14h21.27.903,test2,2020.2.5,MacIntel,60
,,,,m,4.89355,0,66,66,66,1,houses/images/158.jpg,houses/images/199.jpg,67,ningtong,001,2020-11-19_14h21.27.903,test2,2020.2.5,MacIntel,60
,,,,m,4.40152,0,67,67,67,1,houses/images/159.jpg,houses/images/226.jpg,68,ningtong,001,2020-11-19_14h21.27.903,test2,2020.2.5,MacIntel,60
,,,,m,1.54369,0,68,68,68,1,houses/images/16.jpg,houses/images/50.jpg,69,ningtong,001,2020-11-19_14h21.27.903,test2,2020.2.5,MacIntel,60
,,,,m,3.954495,0,69,69,69,1,houses/images/160.jpg,houses/images/239.jpg,70,ningtong,001,2020-11-19_14h21.27.903,test2,2020.2.5,MacIntel,60
,,,,z,0.95667,0,70,70,70,1,houses/images/161.jpg,houses/images/289.jpg,71,ningtong,001,2020-11-19_14h21.27.903,test2,2020.2.5,MacIntel,60
,,,,m,1.686105,0,71,71,71,1,houses/images/162.jpg,houses/images/325.jpg,72,ningtong,001,2020-11-19_14h21.27.903,test2,2020.2.5,MacIntel,60
,,,,z,2.80117,0,72,72,72,1,houses/images/163.jpg,houses/images/259.jpg,73,ningtong,001,2020-11-19_14h21.27.903,test2,2020.2.5,MacIntel,60
,,,,m,1.348555,0,73,73,73,1,houses/images/164.jpg,houses/images/316.jpg,74,ningtong,001,2020-11-19_14h21.27.903,test2,2020.2.5,MacIntel,60
,,,,m,5.75596,0,74,74,74,1,houses/images/165.jpg,houses/images/311.jpg,75,ningtong,001,2020-11-19_14h21.27.903,test2,2020.2.5,MacIntel,60
,,,,z,1.585255,0,75,75,75,1,houses/images/166.jpg,houses/images/246.jpg,76,ningtong,001,2020-11-19_14h21.27.903,test2,2020.2.5,MacIntel,60
,,,,m,4.207955,0,76,76,76,1,houses/images/167.jpg,houses/images/269.jpg,77,ningtong,001,2020-11-19_14h21.27.903,test2,2020.2.5,MacIntel,60
,,,,m,4.053325,0,77,77,77,1,houses/images/168.jpg,houses/images/360.jpg,78,ningtong,001,2020-11-19_14h21.27.903,test2,2020.2.5,MacIntel,60
,,,,m,1.535205,0,78,78,78,1,houses/images/169.jpg,houses/images/116.jpg,79,ningtong,001,2020-11-19_14h21.27.903,test2,2020.2.5,MacIntel,60
,,,,z,1.834855,0,79,79,79,1,houses/images/17.jpg,houses/images/245.jpg,80,ningtong,001,2020-11-19_14h21.27.903,test2,2020.2.5,MacIntel,60
,,,,m,1.5197,0,80,80,80,1,houses/images/170.jpg,houses/images/152.jpg,81,ningtong,001,2020-11-19_14h21.27.903,test2,2020.2.5,MacIntel,60
,,,,z,5.858875,0,81,81,81,1,houses/images/171.jpg,houses/images/77.jpg,82,ningtong,001,2020-11-19_14h21.27.903,test2,2020.2.5,MacIntel,60
,,,,z,0.951015,0,82,82,82,1,houses/images/172.jpg,houses/images/154.jpg,83,ningtong,001,2020-11-19_14h21.27.903,test2,2020.2.5,MacIntel,60
,,,,m,1.10872,0,83,83,83,1,houses/images/273.jpg,houses/images/210.jpg,84,ningtong,001,2020-11-19_14h21.27.903,test2,2020.2.5,MacIntel,60
,,,,m,1.534615,0,84,84,84,1,houses/images/174.jpg,houses/images/121.jpg,85,ningtong,001,2020-11-19_14h21.27.903,test2,2020.2.5,MacIntel,60
,,,,z,2.17424,0,85,85,85,1,houses/images/175.jpg,houses/images/47.jpg,86,ningtong,001,2020-11-19_14h21.27.903,test2,2020.2.5,MacIntel,60
,,,,m,1.0346,0,86,86,86,1,houses/images/176.jpg,houses/images/328.jpg,87,ningtong,001,2020-11-19_14h21.27.903,test2,2020.2.5,MacIntel,60
,,,,m,1.53286,0,87,87,87,1,houses/images/177.jpg,houses/images/35.jpg,88,ningtong,001,2020-11-19_14h21.27.903,test2,2020.2.5,MacIntel,60
,,,,z,1.77458,0,88,88,88,1,houses/images/178.jpg,houses/images/299.jpg,89,ningtong,001,2020-11-19_14h21.27.903,test2,2020.2.5,MacIntel,60
,,,,m,2.95975,0,89,89,89,1,houses/images/179.jpg,houses/images/283.jpg,90,ningtong,001,2020-11-19_14h21.27.903,test2,2020.2.5,MacIntel,60
,,,,z,4.683325,0,90,90,90,1,houses/images/18.jpg,houses/images/182.jpg,91,ningtong,001,2020-11-19_14h21.27.903,test2,2020.2.5,MacIntel,60
,,,,m,4.169035,0,91,91,91,1,houses/images/180.jpg,houses/images/327.jpg,92,ningtong,001,2020-11-19_14h21.27.903,test2,2020.2.5,MacIntel,60
,,,,z,1.35034,0,92,92,92,1,houses/images/281.jpg,houses/images/334.jpg,93,ningtong,001,2020-11-19_14h21.27.903,test2,2020.2.5,MacIntel,60
,,,,m,5.95067,0,93,93,93,1,houses/images/182.jpg,houses/images/75.jpg,94,ningtong,001,2020-11-19_14h21.27.903,test2,2020.2.5,MacIntel,60
,,,,m,2.81846,0,94,94,94,1,houses/images/183.jpg,houses/images/137.jpg,95,ningtong,001,2020-11-19_14h21.27.903,test2,2020.2.5,MacIntel,60
,,,,z,6.372565,0,95,95,95,1,houses/images/184.jpg,houses/images/344.jpg,96,ningtong,001,2020-11-19_14h21.27.903,test2,2020.2.5,MacIntel,60
,,,,z,2.034505,0,96,96,96,1,houses/images/185.jpg,houses/images/285.jpg,97,ningtong,001,2020-11-19_14h21.27.903,test2,2020.2.5,MacIntel,60
,,,,m,1.16765,0,97,97,97,1,houses/images/186.jpg,houses/images/230.jpg,98,ningtong,001,2020-11-19_14h21.27.903,test2,2020.2.5,MacIntel,60
,,,,z,4.550665,0,98,98,98,1,houses/images/187.jpg,houses/images/3.jpg,99,ningtong,001,2020-11-19_14h21.27.903,test2,2020.2.5,MacIntel,60
,,,,m,3.75844,0,99,99,99,1,houses/images/188.jpg,houses/images/304.jpg,100,ningtong,001,2020-11-19_14h21.27.903,test2,2020.2.5,MacIntel,60
,,,,m,1.17478,0,100,100,100,1,houses/images/189.jpg,houses/images/17.jpg,101,ningtong,001,2020-11-19_14h21.27.903,test2,2020.2.5,MacIntel,60
,,,,z,1.05247,0,101,101,101,1,houses/images/19.jpg,houses/images/351.jpg,102,ningtong,001,2020-11-19_14h21.27.903,test2,2020.2.5,MacIntel,60
,,,,m,1.37113,0,102,102,102,1,houses/images/190.jpg,houses/images/307.jpg,103,ningtong,001,2020-11-19_14h21.27.903,test2,2020.2.5,MacIntel,60
,,,,m,1.25238,0,103,103,103,1,houses/images/191.jpg,houses/images/326.jpg,104,ningtong,001,2020-11-19_14h21.27.903,test2,2020.2.5,MacIntel,60
,,,,m,1.218315,0,104,104,104,1,houses/images/292.jpg,houses/images/240.jpg,105,ningtong,001,2020-11-19_14h21.27.903,test2,2020.2.5,MacIntel,60
,,,,m,3.94148,0,105,105,105,1,houses/images/193.jpg,houses/images/243.jpg,106,ningtong,001,2020-11-19_14h21.27.903,test2,2020.2.5,MacIntel,60
,,,,m,1.07527,0,106,106,106,1,houses/images/194.jpg,houses/images/291.jpg,107,ningtong,001,2020-11-19_14h21.27.903,test2,2020.2.5,MacIntel,60
,,,,z,1.73613,0,107,107,107,1,houses/images/195.jpg,houses/images/361.jpg,108,ningtong,001,2020-11-19_14h21.27.903,test2,2020.2.5,MacIntel,60
,,,,m,2.90215,0,108,108,108,1,houses/images/196.jpg,houses/images/30.jpg,109,ningtong,001,2020-11-19_14h21.27.903,test2,2020.2.5,MacIntel,60
,,,,m,1.533225,0,109,109,109,1,houses/images/197.jpg,houses/images/22.jpg,110,ningtong,001,2020-11-19_14h21.27.903,test2,2020.2.5,MacIntel,60
,,,,z,3.28382,0,110,110,110,1,houses/images/198.jpg,houses/images/250.jpg,111,ningtong,001,2020-11-19_14h21.27.903,test2,2020.2.5,MacIntel,60
,,,,m,2.43473,0,111,111,111,1,houses/images/199.jpg,houses/images/323.jpg,112,ningtong,001,2020-11-19_14h21.27.903,test2,2020.2.5,MacIntel,60
,,,,m,3.073655,0,112,112,112,1,houses/images/2.jpg,houses/images/187.jpg,113,ningtong,001,2020-11-19_14h21.27.903,test2,2020.2.5,MacIntel,60
,,,,m,1.69082,0,113,113,113,1,houses/images/20.jpg,houses/images/100.jpg,114,ningtong,001,2020-11-19_14h21.27.903,test2,2020.2.5,MacIntel,60
,,,,z,2.10727,0,114,114,114,1,houses/images/200.jpg,houses/images/238.jpg,115,ningtong,001,2020-11-19_14h21.27.903,test2,2020.2.5,MacIntel,60
,,,,z,2.416105,0,115,115,115,1,houses/images/201.jpg,houses/images/58.jpg,116,ningtong,001,2020-11-19_14h21.27.903,test2,2020.2.5,MacIntel,60
,,,,m,2.71608,0,116,116,116,1,houses/images/202.jpg,houses/images/205.jpg,117,ningtong,001,2020-11-19_14h21.27.903,test2,2020.2.5,MacIntel,60
,,,,z,1.051635,0,117,117,117,1,houses/images/203.jpg,houses/images/40.jpg,118,ningtong,001,2020-11-19_14h21.27.903,test2,2020.2.5,MacIntel,60
,,,,m,7.0841,0,118,118,118,1,houses/images/204.jpg,houses/images/64.jpg,119,ningtong,001,2020-11-19_14h21.27.903,test2,2020.2.5,MacIntel,60
,,,,m,10.510535,0,119,119,119,1,houses/images/205.jpg,houses/images/155.jpg,120,ningtong,001,2020-11-19_14h21.27.903,test2,2020.2.5,MacIntel,60
,,,,z,17.590875,0,120,120,120,1,houses/images/206.jpg,houses/images/199.jpg,121,ningtong,001,2020-11-19_14h21.27.903,test2,2020.2.5,MacIntel,60
,,,,m,2.203525,0,121,121,121,1,houses/images/207.jpg,houses/images/233.jpg,122,ningtong,001,2020-11-19_14h21.27.903,test2,2020.2.5,MacIntel,60
,,,,m,3.05867,0,122,122,122,1,houses/images/208.jpg,houses/images/8.jpg,123,ningtong,001,2020-11-19_14h21.27.903,test2,2020.2.5,MacIntel,60
,,,,z,1.11509,0,123,123,123,1,houses/images/209.jpg,houses/images/167.jpg,124,ningtong,001,2020-11-19_14h21.27.903,test2,2020.2.5,MacIntel,60
,,,,m,1.32182,0,124,124,124,1,houses/images/21.jpg,houses/images/103.jpg,125,ningtong,001,2020-11-19_14h21.27.903,test2,2020.2.5,MacIntel,60
,,,,z,1.906715,0,125,125,125,1,houses/images/210.jpg,houses/images/104.jpg,126,ningtong,001,2020-11-19_14h21.27.903,test2,2020.2.5,MacIntel,60
,,,,m,2.80484,0,126,126,126,1,houses/images/211.jpg,houses/images/327.jpg,127,ningtong,001,2020-11-19_14h21.27.903,test2,2020.2.5,MacIntel,60
,,,,z,1.051475,0,127,127,127,1,houses/images/212.jpg,houses/images/253.jpg,128,ningtong,001,2020-11-19_14h21.27.903,test2,2020.2.5,MacIntel,60
,,,,z,1.40128,0,128,128,128,1,houses/images/213.jpg,houses/images/26.jpg,129,ningtong,001,2020-11-19_14h21.27.903,test2,2020.2.5,MacIntel,60
,,,,z,2.001775,0,129,129,129,1,houses/images/214.jpg,houses/images/198.jpg,130,ningtong,001,2020-11-19_14h21.27.903,test2,2020.2.5,MacIntel,60
,,,,m,1.720755,0,130,130,130,1,houses/images/215.jpg,houses/images/4.jpg,131,ningtong,001,2020-11-19_14h21.27.903,test2,2020.2.5,MacIntel,60
,,,,z,2.400315,0,131,131,131,1,houses/images/316.jpg,houses/images/62.jpg,132,ningtong,001,2020-11-19_14h21.27.903,test2,2020.2.5,MacIntel,60
,,,,z,1.718565,0,132,132,132,1,houses/images/217.jpg,houses/images/114.jpg,133,ningtong,001,2020-11-19_14h21.27.903,test2,2020.2.5,MacIntel,60
,,,,m,1.56319,0,133,133,133,1,houses/images/318.jpg,houses/images/308.jpg,134,ningtong,001,2020-11-19_14h21.27.903,test2,2020.2.5,MacIntel,60
,,,,z,3.3071,0,134,134,134,1,houses/images/219.jpg,houses/images/254.jpg,135,ningtong,001,2020-11-19_14h21.27.903,test2,2020.2.5,MacIntel,60
,,,,z,2.042375,0,135,135,135,1,houses/images/22.jpg,houses/images/170.jpg,136,ningtong,001,2020-11-19_14h21.27.903,test2,2020.2.5,MacIntel,60
,,,,m,1.21872,0,136,136,136,1,houses/images/220.jpg,houses/images/179.jpg,137,ningtong,001,2020-11-19_14h21.27.903,test2,2020.2.5,MacIntel,60
,,,,m,1.3082,0,137,137,137,1,houses/images/221.jpg,houses/images/238.jpg,138,ningtong,001,2020-11-19_14h21.27.903,test2,2020.2.5,MacIntel,60
,,,,z,6.701805,0,138,138,138,1,houses/images/222.jpg,houses/images/256.jpg,139,ningtong,001,2020-11-19_14h21.27.903,test2,2020.2.5,MacIntel,60
,,,,m,2.970675,0,139,139,139,1,houses/images/223.jpg,houses/images/322.jpg,140,ningtong,001,2020-11-19_14h21.27.903,test2,2020.2.5,MacIntel,60
,,,,m,2.601465,0,140,140,140,1,houses/images/224.jpg,houses/images/209.jpg,141,ningtong,001,2020-11-19_14h21.27.903,test2,2020.2.5,MacIntel,60
,,,,z,3.746965,0,141,141,141,1,houses/images/225.jpg,houses/images/219.jpg,142,ningtong,001,2020-11-19_14h21.27.903,test2,2020.2.5,MacIntel,60
,,,,m,1.735105,0,142,142,142,1,houses/images/226.jpg,houses/images/79.jpg,143,ningtong,001,2020-11-19_14h21.27.903,test2,2020.2.5,MacIntel,60
,,,,z,0.919035,0,143,143,143,1,houses/images/227.jpg,houses/images/279.jpg,144,ningtong,001,2020-11-19_14h21.27.903,test2,2020.2.5,MacIntel,60
,,,,z,0.928535,0,144,144,144,1,houses/images/228.jpg,houses/images/111.jpg,145,ningtong,001,2020-11-19_14h21.27.903,test2,2020.2.5,MacIntel,60
,,,,z,1.222915,0,145,145,145,1,houses/images/229.jpg,houses/images/257.jpg,146,ningtong,001,2020-11-19_14h21.27.903,test2,2020.2.5,MacIntel,60
,,,,m,2.33461,0,146,146,146,1,houses/images/23.jpg,houses/images/318.jpg,147,ningtong,001,2020-11-19_14h21.27.903,test2,2020.2.5,MacIntel,60
,,,,z,0.9853,0,147,147,147,1,houses/images/230.jpg,houses/images/312.jpg,148,ningtong,001,2020-11-19_14h21.27.903,test2,2020.2.5,MacIntel,60
,,,,z,1.134355,0,148,148,148,1,houses/images/231.jpg,houses/images/253.jpg,149,ningtong,001,2020-11-19_14h21.27.903,test2,2020.2.5,MacIntel,60
,,,,z,2.10162,0,149,149,149,1,houses/images/232.jpg,houses/images/236.jpg,150,ningtong,001,2020-11-19_14h21.27.903,test2,2020.2.5,MacIntel,60
,,,,z,0.819445,0,150,150,150,1,houses/images/233.jpg,houses/images/66.jpg,151,ningtong,001,2020-11-19_14h21.27.903,test2,2020.2.5,MacIntel,60
,,,,m,2.40123,0,151,151,151,1,houses/images/234.jpg,houses/images/138.jpg,152,ningtong,001,2020-11-19_14h21.27.903,test2,2020.2.5,MacIntel,60
,,,,m,1.151755,0,152,152,152,1,houses/images/235.jpg,houses/images/124.jpg,153,ningtong,001,2020-11-19_14h21.27.903,test2,2020.2.5,MacIntel,60
,,,,m,1.406545,0,153,153,153,1,houses/images/236.jpg,houses/images/160.jpg,154,ningtong,001,2020-11-19_14h21.27.903,test2,2020.2.5,MacIntel,60
,,,,m,4.834375,0,154,154,154,1,houses/images/237.jpg,houses/images/314.jpg,155,ningtong,001,2020-11-19_14h21.27.903,test2,2020.2.5,MacIntel,60
,,,,m,2.860265,0,155,155,155,1,houses/images/238.jpg,houses/images/145.jpg,156,ningtong,001,2020-11-19_14h21.27.903,test2,2020.2.5,MacIntel,60
,,,,m,1.74883,0,156,156,156,1,houses/images/239.jpg,houses/images/195.jpg,157,ningtong,001,2020-11-19_14h21.27.903,test2,2020.2.5,MacIntel,60
,,,,m,1.31176,0,157,157,157,1,houses/images/24.jpg,houses/images/0.jpg,158,ningtong,001,2020-11-19_14h21.27.903,test2,2020.2.5,MacIntel,60
,,,,z,0.70118,0,158,158,158,1,houses/images/240.jpg,houses/images/81.jpg,159,ningtong,001,2020-11-19_14h21.27.903,test2,2020.2.5,MacIntel,60
,,,,m,1.00102,0,159,159,159,1,houses/images/241.jpg,houses/images/226.jpg,160,ningtong,001,2020-11-19_14h21.27.903,test2,2020.2.5,MacIntel,60
,,,,m,0.90217,0,160,160,160,1,houses/images/342.jpg,houses/images/319.jpg,161,ningtong,001,2020-11-19_14h21.27.903,test2,2020.2.5,MacIntel,60
,,,,z,1.243125,0,161,161,161,1,houses/images/243.jpg,houses/images/23.jpg,162,ningtong,001,2020-11-19_14h21.27.903,test2,2020.2.5,MacIntel,60
,,,,z,5.609435,0,162,162,162,1,houses/images/244.jpg,houses/images/146.jpg,163,ningtong,001,2020-11-19_14h21.27.903,test2,2020.2.5,MacIntel,60
,,,,m,1.00872,0,163,163,163,1,houses/images/245.jpg,houses/images/28.jpg,164,ningtong,001,2020-11-19_14h21.27.903,test2,2020.2.5,MacIntel,60
,,,,m,1.60239,0,164,164,164,1,houses/images/246.jpg,houses/images/157.jpg,165,ningtong,001,2020-11-19_14h21.27.903,test2,2020.2.5,MacIntel,60
,,,,z,1.476455,0,165,165,165,1,houses/images/247.jpg,houses/images/2.jpg,166,ningtong,001,2020-11-19_14h21.27.903,test2,2020.2.5,MacIntel,60
,,,,m,1.05247,0,166,166,166,1,houses/images/248.jpg,houses/images/87.jpg,167,ningtong,001,2020-11-19_14h21.27.903,test2,2020.2.5,MacIntel,60
,,,,z,2.224005,0,167,167,167,1,houses/images/249.jpg,houses/images/270.jpg,168,ningtong,001,2020-11-19_14h21.27.903,test2,2020.2.5,MacIntel,60
,,,,m,2.699675,0,168,168,168,1,houses/images/25.jpg,houses/images/67.jpg,169,ningtong,001,2020-11-19_14h21.27.903,test2,2020.2.5,MacIntel,60
,,,,m,2.48156,0,169,169,169,1,houses/images/250.jpg,houses/images/234.jpg,170,ningtong,001,2020-11-19_14h21.27.903,test2,2020.2.5,MacIntel,60
,,,,m,3.935285,0,170,170,170,1,houses/images/251.jpg,houses/images/16.jpg,171,ningtong,001,2020-11-19_14h21.27.903,test2,2020.2.5,MacIntel,60
,,,,z,0.9685,0,171,171,171,1,houses/images/252.jpg,houses/images/12.jpg,172,ningtong,001,2020-11-19_14h21.27.903,test2,2020.2.5,MacIntel,60
,,,,m,4.55892,0,172,172,172,1,houses/images/253.jpg,houses/images/185.jpg,173,ningtong,001,2020-11-19_14h21.27.903,test2,2020.2.5,MacIntel,60
,,,,z,3.29288,0,173,173,173,1,houses/images/254.jpg,houses/images/39.jpg,174,ningtong,001,2020-11-19_14h21.27.903,test2,2020.2.5,MacIntel,60
,,,,z,1.186455,0,174,174,174,1,houses/images/255.jpg,houses/images/237.jpg,175,ningtong,001,2020-11-19_14h21.27.903,test2,2020.2.5,MacIntel,60
,,,,m,1.43448,0,175,175,175,1,houses/images/256.jpg,houses/images/356.jpg,176,ningtong,001,2020-11-19_14h21.27.903,test2,2020.2.5,MacIntel,60
,,,,z,1.213825,0,176,176,176,1,houses/images/257.jpg,houses/images/107.jpg,177,ningtong,001,2020-11-19_14h21.27.903,test2,2020.2.5,MacIntel,60
,,,,m,1.066755,0,177,177,177,1,houses/images/258.jpg,houses/images/84.jpg,178,ningtong,001,2020-11-19_14h21.27.903,test2,2020.2.5,MacIntel,60
,,,,z,1.63486,0,178,178,178,1,houses/images/259.jpg,houses/images/119.jpg,179,ningtong,001,2020-11-19_14h21.27.903,test2,2020.2.5,MacIntel,60
,,,,m,1.11731,0,179,179,179,1,houses/images/26.jpg,houses/images/227.jpg,180,ningtong,001,2020-11-19_14h21.27.903,test2,2020.2.5,MacIntel,60
,,,,m,0.89577,0,180,180,180,1,houses/images/260.jpg,houses/images/238.jpg,181,ningtong,001,2020-11-19_14h21.27.903,test2,2020.2.5,MacIntel,60
,,,,z,2.589235,0,181,181,181,1,houses/images/261.jpg,houses/images/337.jpg,182,ningtong,001,2020-11-19_14h21.27.903,test2,2020.2.5,MacIntel,60
,,,,z,1.04034,0,182,182,182,1,houses/images/262.jpg,houses/images/214.jpg,183,ningtong,001,2020-11-19_14h21.27.903,test2,2020.2.5,MacIntel,60
,,,,z,1.48618,0,183,183,183,1,houses/images/263.jpg,houses/images/239.jpg,184,ningtong,001,2020-11-19_14h21.27.903,test2,2020.2.5,MacIntel,60
,,,,z,1.368325,0,184,184,184,1,houses/images/264.jpg,houses/images/149.jpg,185,ningtong,001,2020-11-19_14h21.27.903,test2,2020.2.5,MacIntel,60
,,,,m,1.51163,0,185,185,185,1,houses/images/265.jpg,houses/images/68.jpg,186,ningtong,001,2020-11-19_14h21.27.903,test2,2020.2.5,MacIntel,60
,,,,m,0.80921,0,186,186,186,1,houses/images/266.jpg,houses/images/271.jpg,187,ningtong,001,2020-11-19_14h21.27.903,test2,2020.2.5,MacIntel,60
,,,,m,1.58275,0,187,187,187,1,houses/images/267.jpg,houses/images/87.jpg,188,ningtong,001,2020-11-19_14h21.27.903,test2,2020.2.5,MacIntel,60
,,,,z,1.136445,0,188,188,188,1,houses/images/268.jpg,houses/images/348.jpg,189,ningtong,001,2020-11-19_14h21.27.903,test2,2020.2.5,MacIntel,60
,,,,m,0.901635,0,189,189,189,1,houses/images/269.jpg,houses/images/228.jpg,190,ningtong,001,2020-11-19_14h21.27.903,test2,2020.2.5,MacIntel,60
,,,,m,2.381615,0,190,190,190,1,houses/images/27.jpg,houses/images/317.jpg,191,ningtong,001,2020-11-19_14h21.27.903,test2,2020.2.5,MacIntel,60
,,,,z,2.512825,0,191,191,191,1,houses/images/270.jpg,houses/images/10.jpg,192,ningtong,001,2020-11-19_14h21.27.903,test2,2020.2.5,MacIntel,60
,,,,z,0.734545,0,192,192,192,1,houses/images/271.jpg,houses/images/222.jpg,193,ningtong,001,2020-11-19_14h21.27.903,test2,2020.2.5,MacIntel,60
,,,,m,1.327035,0,193,193,193,1,houses/images/272.jpg,houses/images/314.jpg,194,ningtong,001,2020-11-19_14h21.27.903,test2,2020.2.5,MacIntel,60
,,,,m,1.117005,0,194,194,194,1,houses/images/273.jpg,houses/images/28.jpg,195,ningtong,001,2020-11-19_14h21.27.903,test2,2020.2.5,MacIntel,60
,,,,m,2.24807,0,195,195,195,1,houses/images/174.jpg,houses/images/294.jpg,196,ningtong,001,2020-11-19_14h21.27.903,test2,2020.2.5,MacIntel,60
,,,,z,2.00012,0,196,196,196,1,houses/images/275.jpg,houses/images/60.jpg,197,ningtong,001,2020-11-19_14h21.27.903,test2,2020.2.5,MacIntel,60
,,,,z,1.574395,0,197,197,197,1,houses/images/276.jpg,houses/images/144.jpg,198,ningtong,001,2020-11-19_14h21.27.903,test2,2020.2.5,MacIntel,60
,,,,m,5.421585,0,198,198,198,1,houses/images/277.jpg,houses/images/168.jpg,199,ningtong,001,2020-11-19_14h21.27.903,test2,2020.2.5,MacIntel,60
,,,,m,1.11859,0,199,199,199,1,houses/images/278.jpg,houses/images/206.jpg,200,ningtong,001,2020-11-19_14h21.27.903,test2,2020.2.5,MacIntel,60
,,,,m,1.6274,0,200,200,200,1,houses/images/279.jpg,houses/images/91.jpg,201,ningtong,001,2020-11-19_14h21.27.903,test2,2020.2.5,MacIntel,60
,,,,z,1.49075,0,201,201,201,1,houses/images/28.jpg,houses/images/49.jpg,202,ningtong,001,2020-11-19_14h21.27.903,test2,2020.2.5,MacIntel,60
,,,,m,1.09319,0,202,202,202,1,houses/images/280.jpg,houses/images/163.jpg,203,ningtong,001,2020-11-19_14h21.27.903,test2,2020.2.5,MacIntel,60
,,,,z,0.9682,0,203,203,203,1,houses/images/281.jpg,houses/images/176.jpg,204,ningtong,001,2020-11-19_14h21.27.903,test2,2020.2.5,MacIntel,60
,,,,m,1.16718,0,204,204,204,1,houses/images/282.jpg,houses/images/263.jpg,205,ningtong,001,2020-11-19_14h21.27.903,test2,2020.2.5,MacIntel,60
,,,,z,2.36836,0,205,205,205,1,houses/images/283.jpg,houses/images/303.jpg,206,ningtong,001,2020-11-19_14h21.27.903,test2,2020.2.5,MacIntel,60
,,,,z,1.874125,0,206,206,206,1,houses/images/284.jpg,houses/images/184.jpg,207,ningtong,001,2020-11-19_14h21.27.903,test2,2020.2.5,MacIntel,60
,,,,m,2.834175,0,207,207,207,1,houses/images/285.jpg,houses/images/264.jpg,208,ningtong,001,2020-11-19_14h21.27.903,test2,2020.2.5,MacIntel,60
,,,,m,1.33457,0,208,208,208,1,houses/images/286.jpg,houses/images/89.jpg,209,ningtong,001,2020-11-19_14h21.27.903,test2,2020.2.5,MacIntel,60
,,,,z,1.97691,0,209,209,209,1,houses/images/187.jpg,houses/images/350.jpg,210,ningtong,001,2020-11-19_14h21.27.903,test2,2020.2.5,MacIntel,60
,,,,z,1.668295,0,210,210,210,1,houses/images/288.jpg,houses/images/267.jpg,211,ningtong,001,2020-11-19_14h21.27.903,test2,2020.2.5,MacIntel,60
,,,,m,1.218885,0,211,211,211,1,houses/images/289.jpg,houses/images/332.jpg,212,ningtong,001,2020-11-19_14h21.27.903,test2,2020.2.5,MacIntel,60
,,,,z,1.50038,0,212,212,212,1,houses/images/29.jpg,houses/images/61.jpg,213,ningtong,001,2020-11-19_14h21.27.903,test2,2020.2.5,MacIntel,60
,,,,m,1.484095,0,213,213,213,1,houses/images/290.jpg,houses/images/102.jpg,214,ningtong,001,2020-11-19_14h21.27.903,test2,2020.2.5,MacIntel,60
,,,,z,1.05773,0,214,214,214,1,houses/images/291.jpg,houses/images/220.jpg,215,ningtong,001,2020-11-19_14h21.27.903,test2,2020.2.5,MacIntel,60
,,,,z,0.868325,0,215,215,215,1,houses/images/292.jpg,houses/images/121.jpg,216,ningtong,001,2020-11-19_14h21.27.903,test2,2020.2.5,MacIntel,60
,,,,z,4.734945,0,216,216,216,1,houses/images/293.jpg,houses/images/25.jpg,217,ningtong,001,2020-11-19_14h21.27.903,test2,2020.2.5,MacIntel,60
,,,,m,1.719995,0,217,217,217,1,houses/images/294.jpg,houses/images/284.jpg,218,ningtong,001,2020-11-19_14h21.27.903,test2,2020.2.5,MacIntel,60
,,,,z,4.12276,0,218,218,218,1,houses/images/295.jpg,houses/images/273.jpg,219,ningtong,001,2020-11-19_14h21.27.903,test2,2020.2.5,MacIntel,60
,,,,m,2.40228,0,219,219,219,1,houses/images/296.jpg,houses/images/122.jpg,220,ningtong,001,2020-11-19_14h21.27.903,test2,2020.2.5,MacIntel,60
,,,,z,1.31748,0,220,220,220,1,houses/images/297.jpg,houses/images/217.jpg,221,ningtong,001,2020-11-19_14h21.27.903,test2,2020.2.5,MacIntel,60
,,,,m,1.334005,0,221,221,221,1,houses/images/298.jpg,houses/images/178.jpg,222,ningtong,001,2020-11-19_14h21.27.903,test2,2020.2.5,MacIntel,60
,,,,z,4.25162,0,222,222,222,1,houses/images/299.jpg,houses/images/43.jpg,223,ningtong,001,2020-11-19_14h21.27.903,test2,2020.2.5,MacIntel,60
,,,,m,1.067835,0,223,223,223,1,houses/images/3.jpg,houses/images/229.jpg,224,ningtong,001,2020-11-19_14h21.27.903,test2,2020.2.5,MacIntel,60
,,,,m,1.34009,0,224,224,224,1,houses/images/30.jpg,houses/images/177.jpg,225,ningtong,001,2020-11-19_14h21.27.903,test2,2020.2.5,MacIntel,60
,,,,z,3.085005,0,225,225,225,1,houses/images/300.jpg,houses/images/342.jpg,226,ningtong,001,2020-11-19_14h21.27.903,test2,2020.2.5,MacIntel,60
,,,,z,1.750615,0,226,226,226,1,houses/images/201.jpg,houses/images/57.jpg,227,ningtong,001,2020-11-19_14h21.27.903,test2,2020.2.5,MacIntel,60
,,,,z,4.80317,0,227,227,227,1,houses/images/302.jpg,houses/images/186.jpg,228,ningtong,001,2020-11-19_14h21.27.903,test2,2020.2.5,MacIntel,60
,,,,m,1.20276,0,228,228,228,1,houses/images/303.jpg,houses/images/131.jpg,229,ningtong,001,2020-11-19_14h21.27.903,test2,2020.2.5,MacIntel,60
,,,,z,1.186715,0,229,229,229,1,houses/images/304.jpg,houses/images/183.jpg,230,ningtong,001,2020-11-19_14h21.27.903,test2,2020.2.5,MacIntel,60
,,,,m,1.435105,0,230,230,230,1,houses/images/305.jpg,houses/images/200.jpg,231,ningtong,001,2020-11-19_14h21.27.903,test2,2020.2.5,MacIntel,60
,,,,m,5.80255,0,231,231,231,1,houses/images/306.jpg,houses/images/94.jpg,232,ningtong,001,2020-11-19_14h21.27.903,test2,2020.2.5,MacIntel,60
,,,,m,1.20277,0,232,232,232,1,houses/images/307.jpg,houses/images/96.jpg,233,ningtong,001,2020-11-19_14h21.27.903,test2,2020.2.5,MacIntel,60
,,,,z,2.424615,0,233,233,233,1,houses/images/308.jpg,houses/images/76.jpg,234,ningtong,001,2020-11-19_14h21.27.903,test2,2020.2.5,MacIntel,60
,,,,m,1.60813,0,234,234,234,1,houses/images/309.jpg,houses/images/78.jpg,235,ningtong,001,2020-11-19_14h21.27.903,test2,2020.2.5,MacIntel,60
,,,,z,1.040095,0,235,235,235,1,houses/images/31.jpg,houses/images/76.jpg,236,ningtong,001,2020-11-19_14h21.27.903,test2,2020.2.5,MacIntel,60
,,,,m,2.617725,0,236,236,236,1,houses/images/310.jpg,houses/images/128.jpg,237,ningtong,001,2020-11-19_14h21.27.903,test2,2020.2.5,MacIntel,60
,,,,m,1.72121,0,237,237,237,1,houses/images/311.jpg,houses/images/190.jpg,238,ningtong,001,2020-11-19_14h21.27.903,test2,2020.2.5,MacIntel,60
,,,,m,3.855065,0,238,238,238,1,houses/images/312.jpg,houses/images/5.jpg,239,ningtong,001,2020-11-19_14h21.27.903,test2,2020.2.5,MacIntel,60
,,,,m,5.201295,0,239,239,239,1,houses/images/313.jpg,houses/images/188.jpg,240,ningtong,001,2020-11-19_14h21.27.903,test2,2020.2.5,MacIntel,60
,,,,z,1.61793,0,240,240,240,1,houses/images/314.jpg,houses/images/342.jpg,241,ningtong,001,2020-11-19_14h21.27.903,test2,2020.2.5,MacIntel,60
,,,,m,1.214575,0,241,241,241,1,houses/images/315.jpg,houses/images/288.jpg,242,ningtong,001,2020-11-19_14h21.27.903,test2,2020.2.5,MacIntel,60
,,,,z,1.224955,0,242,242,242,1,houses/images/316.jpg,houses/images/321.jpg,243,ningtong,001,2020-11-19_14h21.27.903,test2,2020.2.5,MacIntel,60
,,,,z,1.30097,0,243,243,243,1,houses/images/317.jpg,houses/images/82.jpg,244,ningtong,001,2020-11-19_14h21.27.903,test2,2020.2.5,MacIntel,60
,,,,z,1.03528,0,244,244,244,1,houses/images/318.jpg,houses/images/169.jpg,245,ningtong,001,2020-11-19_14h21.27.903,test2,2020.2.5,MacIntel,60
,,,,z,1.101505,0,245,245,245,1,houses/images/319.jpg,houses/images/224.jpg,246,ningtong,001,2020-11-19_14h21.27.903,test2,2020.2.5,MacIntel,60
,,,,z,1.468325,0,246,246,246,1,houses/images/32.jpg,houses/images/175.jpg,247,ningtong,001,2020-11-19_14h21.27.903,test2,2020.2.5,MacIntel,60
,,,,z,1.75127,0,247,247,247,1,houses/images/320.jpg,houses/images/247.jpg,248,ningtong,001,2020-11-19_14h21.27.903,test2,2020.2.5,MacIntel,60
,,,,m,1.202435,0,248,248,248,1,houses/images/321.jpg,houses/images/97.jpg,249,ningtong,001,2020-11-19_14h21.27.903,test2,2020.2.5,MacIntel,60
,,,,m,3.70115,0,249,249,249,1,houses/images/322.jpg,houses/images/74.jpg,250,ningtong,001,2020-11-19_14h21.27.903,test2,2020.2.5,MacIntel,60
,,,,z,1.30167,0,250,250,250,1,houses/images/323.jpg,houses/images/148.jpg,251,ningtong,001,2020-11-19_14h21.27.903,test2,2020.2.5,MacIntel,60
,,,,z,0.91752,0,251,251,251,1,houses/images/324.jpg,houses/images/313.jpg,252,ningtong,001,2020-11-19_14h21.27.903,test2,2020.2.5,MacIntel,60
,,,,m,9.41476,0,252,252,252,1,houses/images/325.jpg,houses/images/11.jpg,253,ningtong,001,2020-11-19_14h21.27.903,test2,2020.2.5,MacIntel,60
,,,,m,0.861505,0,253,253,253,1,houses/images/326.jpg,houses/images/21.jpg,254,ningtong,001,2020-11-19_14h21.27.903,test2,2020.2.5,MacIntel,60
,,,,m,1.051545,0,254,254,254,1,houses/images/327.jpg,houses/images/281.jpg,255,ningtong,001,2020-11-19_14h21.27.903,test2,2020.2.5,MacIntel,60
,,,,m,1.103935,0,255,255,255,1,houses/images/328.jpg,houses/images/172.jpg,256,ningtong,001,2020-11-19_14h21.27.903,test2,2020.2.5,MacIntel,60
,,,,z,1.919495,0,256,256,256,1,houses/images/329.jpg,houses/images/273.jpg,257,ningtong,001,2020-11-19_14h21.27.903,test2,2020.2.5,MacIntel,60
,,,,z,2.72632,0,257,257,257,1,houses/images/33.jpg,houses/images/239.jpg,258,ningtong,001,2020-11-19_14h21.27.903,test2,2020.2.5,MacIntel,60
,,,,z,1.178345,0,258,258,258,1,houses/images/330.jpg,houses/images/333.jpg,259,ningtong,001,2020-11-19_14h21.27.903,test2,2020.2.5,MacIntel,60
,,,,z,1.035035,0,259,259,259,1,houses/images/331.jpg,houses/images/361.jpg,260,ningtong,001,2020-11-19_14h21.27.903,test2,2020.2.5,MacIntel,60
,,,,m,6.46744,0,260,260,260,1,houses/images/332.jpg,houses/images/91.jpg,261,ningtong,001,2020-11-19_14h21.27.903,test2,2020.2.5,MacIntel,60
,,,,z,2.50055,0,261,261,261,1,houses/images/333.jpg,houses/images/158.jpg,262,ningtong,001,2020-11-19_14h21.27.903,test2,2020.2.5,MacIntel,60
,,,,m,1.101265,0,262,262,262,1,houses/images/334.jpg,houses/images/10.jpg,263,ningtong,001,2020-11-19_14h21.27.903,test2,2020.2.5,MacIntel,60
,,,,z,2.37651,0,263,263,263,1,houses/images/335.jpg,houses/images/331.jpg,264,ningtong,001,2020-11-19_14h21.27.903,test2,2020.2.5,MacIntel,60
,,,,m,3.2663,0,264,264,264,1,houses/images/336.jpg,houses/images/171.jpg,265,ningtong,001,2020-11-19_14h21.27.903,test2,2020.2.5,MacIntel,60
,,,,m,2.70789,0,265,265,265,1,houses/images/337.jpg,houses/images/226.jpg,266,ningtong,001,2020-11-19_14h21.27.903,test2,2020.2.5,MacIntel,60
,,,,m,1.15827,0,266,266,266,1,houses/images/238.jpg,houses/images/214.jpg,267,ningtong,001,2020-11-19_14h21.27.903,test2,2020.2.5,MacIntel,60
,,,,m,2.154115,0,267,267,267,1,houses/images/239.jpg,houses/images/130.jpg,268,ningtong,001,2020-11-19_14h21.27.903,test2,2020.2.5,MacIntel,60
,,,,z,4.417945,0,268,268,268,1,houses/images/34.jpg,houses/images/85.jpg,269,ningtong,001,2020-11-19_14h21.27.903,test2,2020.2.5,MacIntel,60
,,,,z,1.5032,0,269,269,269,1,houses/images/340.jpg,houses/images/248.jpg,270,ningtong,001,2020-11-19_14h21.27.903,test2,2020.2.5,MacIntel,60
,,,,z,2.274605,0,270,270,270,1,houses/images/341.jpg,houses/images/215.jpg,271,ningtong,001,2020-11-19_14h21.27.903,test2,2020.2.5,MacIntel,60
,,,,m,1.936365,0,271,271,271,1,houses/images/342.jpg,houses/images/155.jpg,272,ningtong,001,2020-11-19_14h21.27.903,test2,2020.2.5,MacIntel,60
,,,,z,2.71378,0,272,272,272,1,houses/images/343.jpg,houses/images/193.jpg,273,ningtong,001,2020-11-19_14h21.27.903,test2,2020.2.5,MacIntel,60
,,,,m,1.435125,0,273,273,273,1,houses/images/344.jpg,houses/images/324.jpg,274,ningtong,001,2020-11-19_14h21.27.903,test2,2020.2.5,MacIntel,60
,,,,m,1.486365,0,274,274,274,1,houses/images/345.jpg,houses/images/86.jpg,275,ningtong,001,2020-11-19_14h21.27.903,test2,2020.2.5,MacIntel,60
,,,,m,6.317495,0,275,275,275,1,houses/images/246.jpg,houses/images/295.jpg,276,ningtong,001,2020-11-19_14h21.27.903,test2,2020.2.5,MacIntel,60
,,,,m,2.301425,0,276,276,276,1,houses/images/347.jpg,houses/images/292.jpg,277,ningtong,001,2020-11-19_14h21.27.903,test2,2020.2.5,MacIntel,60
,,,,m,0.89897,0,277,277,277,1,houses/images/348.jpg,houses/images/55.jpg,278,ningtong,001,2020-11-19_14h21.27.903,test2,2020.2.5,MacIntel,60
,,,,m,1.351415,0,278,278,278,1,houses/images/349.jpg,houses/images/1.jpg,279,ningtong,001,2020-11-19_14h21.27.903,test2,2020.2.5,MacIntel,60
,,,,m,0.8753,0,279,279,279,1,houses/images/35.jpg,houses/images/73.jpg,280,ningtong,001,2020-11-19_14h21.27.903,test2,2020.2.5,MacIntel,60
,,,,m,1.36747,0,280,280,280,1,houses/images/350.jpg,houses/images/44.jpg,281,ningtong,001,2020-11-19_14h21.27.903,test2,2020.2.5,MacIntel,60
,,,,m,1.13425,0,281,281,281,1,houses/images/351.jpg,houses/images/6.jpg,282,ningtong,001,2020-11-19_14h21.27.903,test2,2020.2.5,MacIntel,60
,,,,z,1.3118,0,282,282,282,1,houses/images/352.jpg,houses/images/20.jpg,283,ningtong,001,2020-11-19_14h21.27.903,test2,2020.2.5,MacIntel,60
,,,,m,1.131535,0,283,283,283,1,houses/images/353.jpg,houses/images/18.jpg,284,ningtong,001,2020-11-19_14h21.27.903,test2,2020.2.5,MacIntel,60
,,,,z,0.817685,0,284,284,284,1,houses/images/354.jpg,houses/images/347.jpg,285,ningtong,001,2020-11-19_14h21.27.903,test2,2020.2.5,MacIntel,60
,,,,z,1.401135,0,285,285,285,1,houses/images/355.jpg,houses/images/27.jpg,286,ningtong,001,2020-11-19_14h21.27.903,test2,2020.2.5,MacIntel,60
,,,,m,1.1017,0,286,286,286,1,houses/images/356.jpg,houses/images/276.jpg,287,ningtong,001,2020-11-19_14h21.27.903,test2,2020.2.5,MacIntel,60
,,,,z,1.84155,0,287,287,287,1,houses/images/357.jpg,houses/images/345.jpg,288,ningtong,001,2020-11-19_14h21.27.903,test2,2020.2.5,MacIntel,60
,,,,z,1.275925,0,288,288,288,1,houses/images/358.jpg,houses/images/235.jpg,289,ningtong,001,2020-11-19_14h21.27.903,test2,2020.2.5,MacIntel,60
,,,,m,1.31721,0,289,289,289,1,houses/images/359.jpg,houses/images/115.jpg,290,ningtong,001,2020-11-19_14h21.27.903,test2,2020.2.5,MacIntel,60
,,,,z,2.60174,0,290,290,290,1,houses/images/36.jpg,houses/images/310.jpg,291,ningtong,001,2020-11-19_14h21.27.903,test2,2020.2.5,MacIntel,60
,,,,m,1.337395,0,291,291,291,1,houses/images/360.jpg,houses/images/93.jpg,292,ningtong,001,2020-11-19_14h21.27.903,test2,2020.2.5,MacIntel,60
,,,,z,1.26884,0,292,292,292,1,houses/images/361.jpg,houses/images/212.jpg,293,ningtong,001,2020-11-19_14h21.27.903,test2,2020.2.5,MacIntel,60
,,,,z,1.968405,0,293,293,293,1,houses/images/62.jpg,houses/images/51.jpg,294,ningtong,001,2020-11-19_14h21.27.903,test2,2020.2.5,MacIntel,60
,,,,z,4.06743,0,294,294,294,1,houses/images/37.jpg,houses/images/108.jpg,295,ningtong,001,2020-11-19_14h21.27.903,test2,2020.2.5,MacIntel,60
,,,,m,1.251595,0,295,295,295,1,houses/images/38.jpg,houses/images/127.jpg,296,ningtong,001,2020-11-19_14h21.27.903,test2,2020.2.5,MacIntel,60
,,,,z,1.51188,0,296,296,296,1,houses/images/39.jpg,houses/images/52.jpg,297,ningtong,001,2020-11-19_14h21.27.903,test2,2020.2.5,MacIntel,60
,,,,m,1.208305,0,297,297,297,1,houses/images/4.jpg,houses/images/318.jpg,298,ningtong,001,2020-11-19_14h21.27.903,test2,2020.2.5,MacIntel,60
,,,,m,3.15371,0,298,298,298,1,houses/images/40.jpg,houses/images/201.jpg,299,ningtong,001,2020-11-19_14h21.27.903,test2,2020.2.5,MacIntel,60
,,,,z,1.970395,0,299,299,299,1,houses/images/41.jpg,houses/images/7.jpg,300,ningtong,001,2020-11-19_14h21.27.903,test2,2020.2.5,MacIntel,60
,,,,z,2.94061,0,300,300,300,1,houses/images/42.jpg,houses/images/340.jpg,301,ningtong,001,2020-11-19_14h21.27.903,test2,2020.2.5,MacIntel,60
,,,,m,20.956005,0,301,301,301,1,houses/images/43.jpg,houses/images/150.jpg,302,ningtong,001,2020-11-19_14h21.27.903,test2,2020.2.5,MacIntel,60
,,,,z,4.400315,0,302,302,302,1,houses/images/44.jpg,houses/images/246.jpg,303,ningtong,001,2020-11-19_14h21.27.903,test2,2020.2.5,MacIntel,60
,,,,z,1.296765,0,303,303,303,1,houses/images/145.jpg,houses/images/18.jpg,304,ningtong,001,2020-11-19_14h21.27.903,test2,2020.2.5,MacIntel,60
,,,,m,1.010605,0,304,304,304,1,houses/images/46.jpg,houses/images/211.jpg,305,ningtong,001,2020-11-19_14h21.27.903,test2,2020.2.5,MacIntel,60
,,,,z,0.922305,0,305,305,305,1,houses/images/47.jpg,houses/images/282.jpg,306,ningtong,001,2020-11-19_14h21.27.903,test2,2020.2.5,MacIntel,60
,,,,m,0.891,0,306,306,306,1,houses/images/48.jpg,houses/images/145.jpg,307,ningtong,001,2020-11-19_14h21.27.903,test2,2020.2.5,MacIntel,60
,,,,m,1.200895,0,307,307,307,1,houses/images/49.jpg,houses/images/135.jpg,308,ningtong,001,2020-11-19_14h21.27.903,test2,2020.2.5,MacIntel,60
,,,,m,2.173185,0,308,308,308,1,houses/images/5.jpg,houses/images/59.jpg,309,ningtong,001,2020-11-19_14h21.27.903,test2,2020.2.5,MacIntel,60
,,,,z,1.00052,0,309,309,309,1,houses/images/50.jpg,houses/images/164.jpg,310,ningtong,001,2020-11-19_14h21.27.903,test2,2020.2.5,MacIntel,60
,,,,m,1.4432,0,310,310,310,1,houses/images/51.jpg,houses/images/42.jpg,311,ningtong,001,2020-11-19_14h21.27.903,test2,2020.2.5,MacIntel,60
,,,,m,1.673525,0,311,311,311,1,houses/images/52.jpg,houses/images/32.jpg,312,ningtong,001,2020-11-19_14h21.27.903,test2,2020.2.5,MacIntel,60
,,,,z,2.327265,0,312,312,312,1,houses/images/53.jpg,houses/images/357.jpg,313,ningtong,001,2020-11-19_14h21.27.903,test2,2020.2.5,MacIntel,60
,,,,z,5.18429,0,313,313,313,1,houses/images/54.jpg,houses/images/305.jpg,314,ningtong,001,2020-11-19_14h21.27.903,test2,2020.2.5,MacIntel,60
,,,,z,2.10821,0,314,314,314,1,houses/images/55.jpg,houses/images/352.jpg,315,ningtong,001,2020-11-19_14h21.27.903,test2,2020.2.5,MacIntel,60
,,,,z,1.31837,0,315,315,315,1,houses/images/56.jpg,houses/images/273.jpg,316,ningtong,001,2020-11-19_14h21.27.903,test2,2020.2.5,MacIntel,60
,,,,m,2.373225,0,316,316,316,1,houses/images/57.jpg,houses/images/143.jpg,317,ningtong,001,2020-11-19_14h21.27.903,test2,2020.2.5,MacIntel,60
,,,,m,0.90177,0,317,317,317,1,houses/images/58.jpg,houses/images/95.jpg,318,ningtong,001,2020-11-19_14h21.27.903,test2,2020.2.5,MacIntel,60
,,,,z,3.20894,0,318,318,318,1,houses/images/59.jpg,houses/images/244.jpg,319,ningtong,001,2020-11-19_14h21.27.903,test2,2020.2.5,MacIntel,60
,,,,z,2.296465,0,319,319,319,1,houses/images/6.jpg,houses/images/202.jpg,320,ningtong,001,2020-11-19_14h21.27.903,test2,2020.2.5,MacIntel,60
,,,,m,1.132715,0,320,320,320,1,houses/images/60.jpg,houses/images/203.jpg,321,ningtong,001,2020-11-19_14h21.27.903,test2,2020.2.5,MacIntel,60
,,,,m,1.591615,0,321,321,321,1,houses/images/61.jpg,houses/images/123.jpg,322,ningtong,001,2020-11-19_14h21.27.903,test2,2020.2.5,MacIntel,60
,,,,z,1.112305,0,322,322,322,1,houses/images/62.jpg,houses/images/353.jpg,323,ningtong,001,2020-11-19_14h21.27.903,test2,2020.2.5,MacIntel,60
,,,,m,1.567965,0,323,323,323,1,houses/images/63.jpg,houses/images/281.jpg,324,ningtong,001,2020-11-19_14h21.27.903,test2,2020.2.5,MacIntel,60
,,,,z,2.86031,0,324,324,324,1,houses/images/64.jpg,houses/images/280.jpg,325,ningtong,001,2020-11-19_14h21.27.903,test2,2020.2.5,MacIntel,60
,,,,m,1.085375,0,325,325,325,1,houses/images/65.jpg,houses/images/309.jpg,326,ningtong,001,2020-11-19_14h21.27.903,test2,2020.2.5,MacIntel,60
,,,,m,2.024155,0,326,326,326,1,houses/images/66.jpg,houses/images/302.jpg,327,ningtong,001,2020-11-19_14h21.27.903,test2,2020.2.5,MacIntel,60
,,,,m,3.71774,0,327,327,327,1,houses/images/67.jpg,houses/images/300.jpg,328,ningtong,001,2020-11-19_14h21.27.903,test2,2020.2.5,MacIntel,60
,,,,m,0.834865,0,328,328,328,1,houses/images/68.jpg,houses/images/328.jpg,329,ningtong,001,2020-11-19_14h21.27.903,test2,2020.2.5,MacIntel,60
,,,,z,1.77534,0,329,329,329,1,houses/images/69.jpg,houses/images/114.jpg,330,ningtong,001,2020-11-19_14h21.27.903,test2,2020.2.5,MacIntel,60
,,,,m,1.509575,0,330,330,330,1,houses/images/7.jpg,houses/images/31.jpg,331,ningtong,001,2020-11-19_14h21.27.903,test2,2020.2.5,MacIntel,60
,,,,m,4.94995,0,331,331,331,1,houses/images/70.jpg,houses/images/54.jpg,332,ningtong,001,2020-11-19_14h21.27.903,test2,2020.2.5,MacIntel,60
,,,,m,1.83526,0,332,332,332,1,houses/images/71.jpg,houses/images/293.jpg,333,ningtong,001,2020-11-19_14h21.27.903,test2,2020.2.5,MacIntel,60
,,,,m,3.15474,0,333,333,333,1,houses/images/72.jpg,houses/images/37.jpg,334,ningtong,001,2020-11-19_14h21.27.903,test2,2020.2.5,MacIntel,60
,,,,m,1.717815,0,334,334,334,1,houses/images/73.jpg,houses/images/230.jpg,335,ningtong,001,2020-11-19_14h21.27.903,test2,2020.2.5,MacIntel,60
,,,,m,1.368345,0,335,335,335,1,houses/images/74.jpg,houses/images/88.jpg,336,ningtong,001,2020-11-19_14h21.27.903,test2,2020.2.5,MacIntel,60
,,,,m,1.41148,0,336,336,336,1,houses/images/75.jpg,houses/images/161.jpg,337,ningtong,001,2020-11-19_14h21.27.903,test2,2020.2.5,MacIntel,60
,,,,m,1.40959,0,337,337,337,1,houses/images/76.jpg,houses/images/354.jpg,338,ningtong,001,2020-11-19_14h21.27.903,test2,2020.2.5,MacIntel,60
,,,,m,1.90281,0,338,338,338,1,houses/images/77.jpg,houses/images/251.jpg,339,ningtong,001,2020-11-19_14h21.27.903,test2,2020.2.5,MacIntel,60
,,,,m,1.752755,0,339,339,339,1,houses/images/78.jpg,houses/images/143.jpg,340,ningtong,001,2020-11-19_14h21.27.903,test2,2020.2.5,MacIntel,60
,,,,m,1.03735,0,340,340,340,1,houses/images/79.jpg,houses/images/335.jpg,341,ningtong,001,2020-11-19_14h21.27.903,test2,2020.2.5,MacIntel,60
,,,,m,0.95158,0,341,341,341,1,houses/images/8.jpg,houses/images/231.jpg,342,ningtong,001,2020-11-19_14h21.27.903,test2,2020.2.5,MacIntel,60
,,,,z,2.784755,0,342,342,342,1,houses/images/80.jpg,houses/images/69.jpg,343,ningtong,001,2020-11-19_14h21.27.903,test2,2020.2.5,MacIntel,60
,,,,z,1.513225,0,343,343,343,1,houses/images/81.jpg,houses/images/92.jpg,344,ningtong,001,2020-11-19_14h21.27.903,test2,2020.2.5,MacIntel,60
,,,,z,1.30731,0,344,344,344,1,houses/images/82.jpg,houses/images/221.jpg,345,ningtong,001,2020-11-19_14h21.27.903,test2,2020.2.5,MacIntel,60
,,,,z,2.12028,0,345,345,345,1,houses/images/83.jpg,houses/images/196.jpg,346,ningtong,001,2020-11-19_14h21.27.903,test2,2020.2.5,MacIntel,60
,,,,z,0.95197,0,346,346,346,1,houses/images/84.jpg,houses/images/53.jpg,347,ningtong,001,2020-11-19_14h21.27.903,test2,2020.2.5,MacIntel,60
,,,,m,1.240575,0,347,347,347,1,houses/images/85.jpg,houses/images/166.jpg,348,ningtong,001,2020-11-19_14h21.27.903,test2,2020.2.5,MacIntel,60
,,,,z,1.081005,0,348,348,348,1,houses/images/86.jpg,houses/images/266.jpg,349,ningtong,001,2020-11-19_14h21.27.903,test2,2020.2.5,MacIntel,60
,,,,m,1.20977,0,349,349,349,1,houses/images/87.jpg,houses/images/355.jpg,350,ningtong,001,2020-11-19_14h21.27.903,test2,2020.2.5,MacIntel,60
,,,,m,3.435385,0,350,350,350,1,houses/images/88.jpg,houses/images/206.jpg,351,ningtong,001,2020-11-19_14h21.27.903,test2,2020.2.5,MacIntel,60
,,,,m,5.325035,0,351,351,351,1,houses/images/89.jpg,houses/images/241.jpg,352,ningtong,001,2020-11-19_14h21.27.903,test2,2020.2.5,MacIntel,60
,,,,z,2.840915,0,352,352,352,1,houses/images/9.jpg,houses/images/147.jpg,353,ningtong,001,2020-11-19_14h21.27.903,test2,2020.2.5,MacIntel,60
,,,,m,0.96796,0,353,353,353,1,houses/images/90.jpg,houses/images/117.jpg,354,ningtong,001,2020-11-19_14h21.27.903,test2,2020.2.5,MacIntel,60
,,,,m,2.09811,0,354,354,354,1,houses/images/91.jpg,houses/images/34.jpg,355,ningtong,001,2020-11-19_14h21.27.903,test2,2020.2.5,MacIntel,60
,,,,m,1.74937,0,355,355,355,1,houses/images/92.jpg,houses/images/105.jpg,356,ningtong,001,2020-11-19_14h21.27.903,test2,2020.2.5,MacIntel,60
,,,,z,2.62878,0,356,356,356,1,houses/images/93.jpg,houses/images/249.jpg,357,ningtong,001,2020-11-19_14h21.27.903,test2,2020.2.5,MacIntel,60
,,,,z,1.44878,0,357,357,357,1,houses/images/94.jpg,houses/images/265.jpg,358,ningtong,001,2020-11-19_14h21.27.903,test2,2020.2.5,MacIntel,60
,,,,z,1.12113,0,358,358,358,1,houses/images/95.jpg,houses/images/65.jpg,359,ningtong,001,2020-11-19_14h21.27.903,test2,2020.2.5,MacIntel,60
,,,,z,4.41389,0,359,359,359,1,houses/images/96.jpg,houses/images/83.jpg,360,ningtong,001,2020-11-19_14h21.27.903,test2,2020.2.5,MacIntel,60
,,,,z,2.034285,0,360,360,360,1,houses/images/97.jpg,houses/images/165.jpg,361,ningtong,001,2020-11-19_14h21.27.903,test2,2020.2.5,MacIntel,60
,,,,m,1.041715,0,361,361,361,1,houses/images/98.jpg,houses/images/280.jpg,362,ningtong,001,2020-11-19_14h21.27.903,test2,2020.2.5,MacIntel,60
,,,,m,1.63334,0,362,362,362,1,houses/images/199.jpg,houses/images/278.jpg,363,ningtong,001,2020-11-19_14h21.27.903,test2,2020.2.5,MacIntel,60
,,,,m,3.293815,0,363,363,363,1,houses/images/0.jpg,houses/images/297.jpg,364,ningtong,001,2020-11-19_14h21.27.903,test2,2020.2.5,MacIntel,60
,,,,m,1.744355,0,364,364,364,1,houses/images/1.jpg,houses/images/225.jpg,365,ningtong,001,2020-11-19_14h21.27.903,test2,2020.2.5,MacIntel,60
,,,,m,2.425365,0,365,365,365,1,houses/images/10.jpg,houses/images/41.jpg,366,ningtong,001,2020-11-19_14h21.27.903,test2,2020.2.5,MacIntel,60
,,,,m,1.24452,0,366,366,366,1,houses/images/100.jpg,houses/images/19.jpg,367,ningtong,001,2020-11-19_14h21.27.903,test2,2020.2.5,MacIntel,60
,,,,m,1.23494,0,367,367,367,1,houses/images/101.jpg,houses/images/189.jpg,368,ningtong,001,2020-11-19_14h21.27.903,test2,2020.2.5,MacIntel,60
,,,,z,1.45683,0,368,368,368,1,houses/images/102.jpg,houses/images/141.jpg,369,ningtong,001,2020-11-19_14h21.27.903,test2,2020.2.5,MacIntel,60
,,,,m,4.173805,0,369,369,369,1,houses/images/103.jpg,houses/images/212.jpg,370,ningtong,001,2020-11-19_14h21.27.903,test2,2020.2.5,MacIntel,60
,,,,m,0.885105,0,370,370,370,1,houses/images/104.jpg,houses/images/134.jpg,371,ningtong,001,2020-11-19_14h21.27.903,test2,2020.2.5,MacIntel,60
,,,,m,1.28495,0,371,371,371,1,houses/images/105.jpg,houses/images/13.jpg,372,ningtong,001,2020-11-19_14h21.27.903,test2,2020.2.5,MacIntel,60
,,,,m,1.15656,0,372,372,372,1,houses/images/106.jpg,houses/images/258.jpg,373,ningtong,001,2020-11-19_14h21.27.903,test2,2020.2.5,MacIntel,60
,,,,z,1.76859,0,373,373,373,1,houses/images/107.jpg,houses/images/14.jpg,374,ningtong,001,2020-11-19_14h21.27.903,test2,2020.2.5,MacIntel,60
,,,,m,1.184495,0,374,374,374,1,houses/images/108.jpg,houses/images/9.jpg,375,ningtong,001,2020-11-19_14h21.27.903,test2,2020.2.5,MacIntel,60
,,,,m,2.76524,0,375,375,375,1,houses/images/109.jpg,houses/images/106.jpg,376,ningtong,001,2020-11-19_14h21.27.903,test2,2020.2.5,MacIntel,60
,,,,m,2.784785,0,376,376,376,1,houses/images/11.jpg,houses/images/268.jpg,377,ningtong,001,2020-11-19_14h21.27.903,test2,2020.2.5,MacIntel,60
,,,,m,1.067555,0,377,377,377,1,houses/images/210.jpg,houses/images/330.jpg,378,ningtong,001,2020-11-19_14h21.27.903,test2,2020.2.5,MacIntel,60
,,,,m,3.69774,0,378,378,378,1,houses/images/111.jpg,houses/images/343.jpg,379,ningtong,001,2020-11-19_14h21.27.903,test2,2020.2.5,MacIntel,60
,,,,z,0.86705,0,379,379,379,1,houses/images/112.jpg,houses/images/225.jpg,380,ningtong,001,2020-11-19_14h21.27.903,test2,2020.2.5,MacIntel,60
,,,,m,0.939465,0,380,380,380,1,houses/images/113.jpg,houses/images/174.jpg,381,ningtong,001,2020-11-19_14h21.27.903,test2,2020.2.5,MacIntel,60
,,,,m,2.30623,0,381,381,381,1,houses/images/114.jpg,houses/images/25.jpg,382,ningtong,001,2020-11-19_14h21.27.903,test2,2020.2.5,MacIntel,60
,,,,m,4.218935,0,382,382,382,1,houses/images/115.jpg,houses/images/100.jpg,383,ningtong,001,2020-11-19_14h21.27.903,test2,2020.2.5,MacIntel,60
,,,,z,2.80208,0,383,383,383,1,houses/images/116.jpg,houses/images/48.jpg,384,ningtong,001,2020-11-19_14h21.27.903,test2,2020.2.5,MacIntel,60
,,,,m,5.174075,0,384,384,384,1,houses/images/117.jpg,houses/images/296.jpg,385,ningtong,001,2020-11-19_14h21.27.903,test2,2020.2.5,MacIntel,60
,,,,z,2.37783,0,385,385,385,1,houses/images/118.jpg,houses/images/15.jpg,386,ningtong,001,2020-11-19_14h21.27.903,test2,2020.2.5,MacIntel,60
,,,,m,0.78297,0,386,386,386,1,houses/images/119.jpg,houses/images/252.jpg,387,ningtong,001,2020-11-19_14h21.27.903,test2,2020.2.5,MacIntel,60
,,,,z,1.10658,0,387,387,387,1,houses/images/12.jpg,houses/images/290.jpg,388,ningtong,001,2020-11-19_14h21.27.903,test2,2020.2.5,MacIntel,60
,,,,z,0.868145,0,388,388,388,1,houses/images/120.jpg,houses/images/236.jpg,389,ningtong,001,2020-11-19_14h21.27.903,test2,2020.2.5,MacIntel,60
,,,,z,0.845135,0,389,389,389,1,houses/images/121.jpg,houses/images/260.jpg,390,ningtong,001,2020-11-19_14h21.27.903,test2,2020.2.5,MacIntel,60
,,,,z,0.991165,0,390,390,390,1,houses/images/122.jpg,houses/images/56.jpg,391,ningtong,001,2020-11-19_14h21.27.903,test2,2020.2.5,MacIntel,60
,,,,m,1.21282,0,391,391,391,1,houses/images/123.jpg,houses/images/336.jpg,392,ningtong,001,2020-11-19_14h21.27.903,test2,2020.2.5,MacIntel,60
,,,,m,1.261405,0,392,392,392,1,houses/images/124.jpg,houses/images/39.jpg,393,ningtong,001,2020-11-19_14h21.27.903,test2,2020.2.5,MacIntel,60
,,,,z,1.354835,0,393,393,393,1,houses/images/225.jpg,houses/images/302.jpg,394,ningtong,001,2020-11-19_14h21.27.903,test2,2020.2.5,MacIntel,60
,,,,m,4.466985,0,394,394,394,1,houses/images/226.jpg,houses/images/207.jpg,395,ningtong,001,2020-11-19_14h21.27.903,test2,2020.2.5,MacIntel,60
,,,,z,0.918475,0,395,395,395,1,houses/images/127.jpg,houses/images/348.jpg,396,ningtong,001,2020-11-19_14h21.27.903,test2,2020.2.5,MacIntel,60
,,,,z,1.350895,0,396,396,396,1,houses/images/128.jpg,houses/images/151.jpg,397,ningtong,001,2020-11-19_14h21.27.903,test2,2020.2.5,MacIntel,60
,,,,m,1.177705,0,397,397,397,1,houses/images/129.jpg,houses/images/315.jpg,398,ningtong,001,2020-11-19_14h21.27.903,test2,2020.2.5,MacIntel,60
,,,,z,1.3484,0,398,398,398,1,houses/images/13.jpg,houses/images/63.jpg,399,ningtong,001,2020-11-19_14h21.27.903,test2,2020.2.5,MacIntel,60
,,,,m,1.309265,0,399,399,399,1,houses/images/307.jpg,houses/images/172.jpg,400,ningtong,001,2020-11-19_14h21.27.903,test2,2020.2.5,MacIntel,60
