key_resp.keys,key_resp.rt,key_resp_3.keys,key_resp_3.rt,key_resp_2.keys,key_resp_2.rt,trials.thisRepN,trials.thisTrialN,trials.thisN,trials.thisIndex,trials.ran,image_left,image_right,trial_num,participant,session,date,expName,psychopyVersion,OS,frameRate,key_resp_4.keys,key_resp_4.rt,trials_2.thisRepN,trials_2.thisTrialN,trials_2.thisN,trials_2.thisIndex,trials_2.ran
space,7.810425,space,14.310315,z,4.8036,0,0,0,0,1,houses/images/0.jpg,houses/images/349.jpg,1,rajeev,001,2020-11-20_20h22.28.634,test2,2020.2.5,Win32,60,,,,,,,
,,,,z,2.8201,0,1,1,1,1,houses/images/1.jpg,houses/images/194.jpg,2,rajeev,001,2020-11-20_20h22.28.634,test2,2020.2.5,Win32,60,,,,,,,
,,,,z,2.2192,0,2,2,2,1,houses/images/10.jpg,houses/images/159.jpg,3,rajeev,001,2020-11-20_20h22.28.634,test2,2020.2.5,Win32,60,,,,,,,
,,,,z,2.714145,0,3,3,3,1,houses/images/100.jpg,houses/images/42.jpg,4,rajeev,001,2020-11-20_20h22.28.634,test2,2020.2.5,Win32,60,,,,,,,
,,,,z,3.160625,0,4,4,4,1,houses/images/101.jpg,houses/images/240.jpg,5,rajeev,001,2020-11-20_20h22.28.634,test2,2020.2.5,Win32,60,,,,,,,
,,,,m,1.90843,0,5,5,5,1,houses/images/102.jpg,houses/images/201.jpg,6,rajeev,001,2020-11-20_20h22.28.634,test2,2020.2.5,Win32,60,,,,,,,
,,,,m,6.28022,0,6,6,6,1,houses/images/103.jpg,houses/images/223.jpg,7,rajeev,001,2020-11-20_20h22.28.634,test2,2020.2.5,Win32,60,,,,,,,
,,,,m,4.66115,0,7,7,7,1,houses/images/104.jpg,houses/images/46.jpg,8,rajeev,001,2020-11-20_20h22.28.634,test2,2020.2.5,Win32,60,,,,,,,
,,,,z,1.54374,0,8,8,8,1,houses/images/105.jpg,houses/images/109.jpg,9,rajeev,001,2020-11-20_20h22.28.634,test2,2020.2.5,Win32,60,,,,,,,
,,,,z,6.94103,0,9,9,9,1,houses/images/106.jpg,houses/images/12.jpg,10,rajeev,001,2020-11-20_20h22.28.634,test2,2020.2.5,Win32,60,,,,,,,
,,,,z,4.4387,0,10,10,10,1,houses/images/107.jpg,houses/images/358.jpg,11,rajeev,001,2020-11-20_20h22.28.634,test2,2020.2.5,Win32,60,,,,,,,
,,,,z,10.2583,0,11,11,11,1,houses/images/108.jpg,houses/images/197.jpg,12,rajeev,001,2020-11-20_20h22.28.634,test2,2020.2.5,Win32,60,,,,,,,
,,,,m,4.026335,0,12,12,12,1,houses/images/109.jpg,houses/images/133.jpg,13,rajeev,001,2020-11-20_20h22.28.634,test2,2020.2.5,Win32,60,,,,,,,
,,,,z,4.1608,0,13,13,13,1,houses/images/11.jpg,houses/images/286.jpg,14,rajeev,001,2020-11-20_20h22.28.634,test2,2020.2.5,Win32,60,,,,,,,
,,,,z,3.445595,0,14,14,14,1,houses/images/210.jpg,houses/images/33.jpg,15,rajeev,001,2020-11-20_20h22.28.634,test2,2020.2.5,Win32,60,,,,,,,
,,,,z,9.500125,0,15,15,15,1,houses/images/111.jpg,houses/images/156.jpg,16,rajeev,001,2020-11-20_20h22.28.634,test2,2020.2.5,Win32,60,,,,,,,
,,,,m,7.549275,0,16,16,16,1,houses/images/112.jpg,houses/images/128.jpg,17,rajeev,001,2020-11-20_20h22.28.634,test2,2020.2.5,Win32,60,,,,,,,
,,,,m,4.264555,0,17,17,17,1,houses/images/113.jpg,houses/images/306.jpg,18,rajeev,001,2020-11-20_20h22.28.634,test2,2020.2.5,Win32,60,,,,,,,
,,,,z,3.3713,0,18,18,18,1,houses/images/114.jpg,houses/images/272.jpg,19,rajeev,001,2020-11-20_20h22.28.634,test2,2020.2.5,Win32,60,,,,,,,
,,,,z,10.35184,0,19,19,19,1,houses/images/115.jpg,houses/images/112.jpg,20,rajeev,001,2020-11-20_20h22.28.634,test2,2020.2.5,Win32,60,,,,,,,
,,,,z,8.793425,0,20,20,20,1,houses/images/116.jpg,houses/images/101.jpg,21,rajeev,001,2020-11-20_20h22.28.634,test2,2020.2.5,Win32,60,,,,,,,
,,,,m,10.43041,0,21,21,21,1,houses/images/117.jpg,houses/images/298.jpg,22,rajeev,001,2020-11-20_20h22.28.634,test2,2020.2.5,Win32,60,,,,,,,
,,,,z,2.824565,0,22,22,22,1,houses/images/118.jpg,houses/images/80.jpg,23,rajeev,001,2020-11-20_20h22.28.634,test2,2020.2.5,Win32,60,,,,,,,
,,,,m,3.190105,0,23,23,23,1,houses/images/119.jpg,houses/images/329.jpg,24,rajeev,001,2020-11-20_20h22.28.634,test2,2020.2.5,Win32,60,,,,,,,
,,,,z,9.80492,0,24,24,24,1,houses/images/12.jpg,houses/images/320.jpg,25,rajeev,001,2020-11-20_20h22.28.634,test2,2020.2.5,Win32,60,,,,,,,
,,,,m,7.382485,0,25,25,25,1,houses/images/120.jpg,houses/images/24.jpg,26,rajeev,001,2020-11-20_20h22.28.634,test2,2020.2.5,Win32,60,,,,,,,
,,,,m,2.626685,0,26,26,26,1,houses/images/121.jpg,houses/images/341.jpg,27,rajeev,001,2020-11-20_20h22.28.634,test2,2020.2.5,Win32,60,,,,,,,
,,,,m,3.32863,0,27,27,27,1,houses/images/122.jpg,houses/images/38.jpg,28,rajeev,001,2020-11-20_20h22.28.634,test2,2020.2.5,Win32,60,,,,,,,
,,,,z,3.920665,0,28,28,28,1,houses/images/123.jpg,houses/images/98.jpg,29,rajeev,001,2020-11-20_20h22.28.634,test2,2020.2.5,Win32,60,,,,,,,
,,,,z,23.432455,0,29,29,29,1,houses/images/124.jpg,houses/images/213.jpg,30,rajeev,001,2020-11-20_20h22.28.634,test2,2020.2.5,Win32,60,,,,,,,
,,,,z,2.609715,0,30,30,30,1,houses/images/225.jpg,houses/images/208.jpg,31,rajeev,001,2020-11-20_20h22.28.634,test2,2020.2.5,Win32,60,,,,,,,
,,,,z,11.97712,0,31,31,31,1,houses/images/226.jpg,houses/images/210.jpg,32,rajeev,001,2020-11-20_20h22.28.634,test2,2020.2.5,Win32,60,,,,,,,
,,,,m,3.753635,0,32,32,32,1,houses/images/127.jpg,houses/images/90.jpg,33,rajeev,001,2020-11-20_20h22.28.634,test2,2020.2.5,Win32,60,,,,,,,
,,,,z,12.23425,0,33,33,33,1,houses/images/128.jpg,houses/images/113.jpg,34,rajeev,001,2020-11-20_20h22.28.634,test2,2020.2.5,Win32,60,,,,,,,
,,,,z,9.153915,0,34,34,34,1,houses/images/129.jpg,houses/images/232.jpg,35,rajeev,001,2020-11-20_20h22.28.634,test2,2020.2.5,Win32,60,,,,,,,
,,,,m,1.60337,0,35,35,35,1,houses/images/13.jpg,houses/images/359.jpg,36,rajeev,001,2020-11-20_20h22.28.634,test2,2020.2.5,Win32,60,,,,,,,
,,,,m,15.84044,0,36,36,36,1,houses/images/130.jpg,houses/images/187.jpg,37,rajeev,001,2020-11-20_20h22.28.634,test2,2020.2.5,Win32,60,,,,,,,
,,,,m,2.47284,0,37,37,37,1,houses/images/131.jpg,houses/images/275.jpg,38,rajeev,001,2020-11-20_20h22.28.634,test2,2020.2.5,Win32,60,,,,,,,
,,,,m,8.132945,0,38,38,38,1,houses/images/132.jpg,houses/images/162.jpg,39,rajeev,001,2020-11-20_20h22.28.634,test2,2020.2.5,Win32,60,,,,,,,
,,,,m,3.173575,0,39,39,39,1,houses/images/133.jpg,houses/images/311.jpg,40,rajeev,001,2020-11-20_20h22.28.634,test2,2020.2.5,Win32,60,,,,,,,
,,,,z,3.070315,0,40,40,40,1,houses/images/134.jpg,houses/images/277.jpg,41,rajeev,001,2020-11-20_20h22.28.634,test2,2020.2.5,Win32,60,,,,,,,
,,,,z,5.194305,0,41,41,41,1,houses/images/135.jpg,houses/images/71.jpg,42,rajeev,001,2020-11-20_20h22.28.634,test2,2020.2.5,Win32,60,,,,,,,
,,,,z,6.7194,0,42,42,42,1,houses/images/236.jpg,houses/images/72.jpg,43,rajeev,001,2020-11-20_20h22.28.634,test2,2020.2.5,Win32,60,,,,,,,
,,,,m,2.017895,0,43,43,43,1,houses/images/137.jpg,houses/images/246.jpg,44,rajeev,001,2020-11-20_20h22.28.634,test2,2020.2.5,Win32,60,,,,,,,
,,,,m,11.31093,0,44,44,44,1,houses/images/138.jpg,houses/images/174.jpg,45,rajeev,001,2020-11-20_20h22.28.634,test2,2020.2.5,Win32,60,,,,,,,
,,,,m,2.29247,0,45,45,45,1,houses/images/239.jpg,houses/images/292.jpg,46,rajeev,001,2020-11-20_20h22.28.634,test2,2020.2.5,Win32,60,,,,,,,
,,,,m,5.644915,0,46,46,46,1,houses/images/14.jpg,houses/images/194.jpg,47,rajeev,001,2020-11-20_20h22.28.634,test2,2020.2.5,Win32,60,,,,,,,
,,,,m,1.733965,0,47,47,47,1,houses/images/240.jpg,houses/images/180.jpg,48,rajeev,001,2020-11-20_20h22.28.634,test2,2020.2.5,Win32,60,,,,,,,
,,,,z,7.27771,0,48,48,48,1,houses/images/141.jpg,houses/images/262.jpg,49,rajeev,001,2020-11-20_20h22.28.634,test2,2020.2.5,Win32,60,,,,,,,
,,,,m,1.516155,0,49,49,49,1,houses/images/42.jpg,houses/images/118.jpg,50,rajeev,001,2020-11-20_20h22.28.634,test2,2020.2.5,Win32,60,,,,,,,
,,,,m,8.45995,0,50,50,50,1,houses/images/143.jpg,houses/images/316.jpg,51,rajeev,001,2020-11-20_20h22.28.634,test2,2020.2.5,Win32,60,,,,,,,
,,,,m,3.958225,0,51,51,51,1,houses/images/144.jpg,houses/images/29.jpg,52,rajeev,001,2020-11-20_20h22.28.634,test2,2020.2.5,Win32,60,,,,,,,
,,,,m,3.957825,0,52,52,52,1,houses/images/145.jpg,houses/images/146.jpg,53,rajeev,001,2020-11-20_20h22.28.634,test2,2020.2.5,Win32,60,,,,,,,
,,,,z,1.672415,0,53,53,53,1,houses/images/146.jpg,houses/images/342.jpg,54,rajeev,001,2020-11-20_20h22.28.634,test2,2020.2.5,Win32,60,,,,,,,
,,,,m,9.0355,0,54,54,54,1,houses/images/147.jpg,houses/images/120.jpg,55,rajeev,001,2020-11-20_20h22.28.634,test2,2020.2.5,Win32,60,,,,,,,
,,,,m,4.68059,0,55,55,55,1,houses/images/148.jpg,houses/images/204.jpg,56,rajeev,001,2020-11-20_20h22.28.634,test2,2020.2.5,Win32,60,,,,,,,
,,,,m,2.490745,0,56,56,56,1,houses/images/149.jpg,houses/images/292.jpg,57,rajeev,001,2020-11-20_20h22.28.634,test2,2020.2.5,Win32,60,,,,,,,
,,,,z,10.77203,0,57,57,57,1,houses/images/15.jpg,houses/images/191.jpg,58,rajeev,001,2020-11-20_20h22.28.634,test2,2020.2.5,Win32,60,,,,,,,
,,,,m,4.20676,0,58,58,58,1,houses/images/150.jpg,houses/images/318.jpg,59,rajeev,001,2020-11-20_20h22.28.634,test2,2020.2.5,Win32,60,,,,,,,
,,,,m,2.16368,0,59,59,59,1,houses/images/151.jpg,houses/images/255.jpg,60,rajeev,001,2020-11-20_20h22.28.634,test2,2020.2.5,Win32,60,,,,,,,
,,,,z,4.66896,0,60,60,60,1,houses/images/152.jpg,houses/images/261.jpg,61,rajeev,001,2020-11-20_20h22.28.634,test2,2020.2.5,Win32,60,,,,,,,
,,,,z,2.304605,0,61,61,61,1,houses/images/253.jpg,houses/images/129.jpg,62,rajeev,001,2020-11-20_20h22.28.634,test2,2020.2.5,Win32,60,,,,,,,
,,,,m,2.66423,0,62,62,62,1,houses/images/154.jpg,houses/images/36.jpg,63,rajeev,001,2020-11-20_20h22.28.634,test2,2020.2.5,Win32,60,,,,,,,
,,,,z,3.73379,0,63,63,63,1,houses/images/155.jpg,houses/images/210.jpg,64,rajeev,001,2020-11-20_20h22.28.634,test2,2020.2.5,Win32,60,,,,,,,
,,,,m,13.654445,0,64,64,64,1,houses/images/156.jpg,houses/images/132.jpg,65,rajeev,001,2020-11-20_20h22.28.634,test2,2020.2.5,Win32,60,,,,,,,
,,,,m,5.479155,0,65,65,65,1,houses/images/157.jpg,houses/images/70.jpg,66,rajeev,001,2020-11-20_20h22.28.634,test2,2020.2.5,Win32,60,,,,,,,
,,,,z,5.52538,0,66,66,66,1,houses/images/158.jpg,houses/images/199.jpg,67,rajeev,001,2020-11-20_20h22.28.634,test2,2020.2.5,Win32,60,,,,,,,
,,,,m,1.49683,0,67,67,67,1,houses/images/159.jpg,houses/images/226.jpg,68,rajeev,001,2020-11-20_20h22.28.634,test2,2020.2.5,Win32,60,,,,,,,
,,,,z,6.68612,0,68,68,68,1,houses/images/16.jpg,houses/images/50.jpg,69,rajeev,001,2020-11-20_20h22.28.634,test2,2020.2.5,Win32,60,,,,,,,
,,,,z,2.26066,0,69,69,69,1,houses/images/160.jpg,houses/images/239.jpg,70,rajeev,001,2020-11-20_20h22.28.634,test2,2020.2.5,Win32,60,,,,,,,
,,,,z,4.861615,0,70,70,70,1,houses/images/161.jpg,houses/images/289.jpg,71,rajeev,001,2020-11-20_20h22.28.634,test2,2020.2.5,Win32,60,,,,,,,
,,,,m,2.74534,0,71,71,71,1,houses/images/162.jpg,houses/images/325.jpg,72,rajeev,001,2020-11-20_20h22.28.634,test2,2020.2.5,Win32,60,,,,,,,
,,,,z,4.16716,0,72,72,72,1,houses/images/163.jpg,houses/images/259.jpg,73,rajeev,001,2020-11-20_20h22.28.634,test2,2020.2.5,Win32,60,,,,,,,
,,,,m,4.4369,0,73,73,73,1,houses/images/164.jpg,houses/images/316.jpg,74,rajeev,001,2020-11-20_20h22.28.634,test2,2020.2.5,Win32,60,,,,,,,
,,,,z,4.78735,0,74,74,74,1,houses/images/165.jpg,houses/images/311.jpg,75,rajeev,001,2020-11-20_20h22.28.634,test2,2020.2.5,Win32,60,,,,,,,
,,,,m,3.15283,0,75,75,75,1,houses/images/166.jpg,houses/images/246.jpg,76,rajeev,001,2020-11-20_20h22.28.634,test2,2020.2.5,Win32,60,,,,,,,
,,,,m,1.8917,0,76,76,76,1,houses/images/167.jpg,houses/images/269.jpg,77,rajeev,001,2020-11-20_20h22.28.634,test2,2020.2.5,Win32,60,,,,,,,
,,,,z,4.567475,0,77,77,77,1,houses/images/168.jpg,houses/images/360.jpg,78,rajeev,001,2020-11-20_20h22.28.634,test2,2020.2.5,Win32,60,,,,,,,
,,,,m,2.202605,0,78,78,78,1,houses/images/169.jpg,houses/images/116.jpg,79,rajeev,001,2020-11-20_20h22.28.634,test2,2020.2.5,Win32,60,,,,,,,
,,,,z,2.686545,0,79,79,79,1,houses/images/17.jpg,houses/images/245.jpg,80,rajeev,001,2020-11-20_20h22.28.634,test2,2020.2.5,Win32,60,,,,,,,
,,,,m,2.794905,0,80,80,80,1,houses/images/170.jpg,houses/images/152.jpg,81,rajeev,001,2020-11-20_20h22.28.634,test2,2020.2.5,Win32,60,,,,,,,
,,,,z,5.6383,0,81,81,81,1,houses/images/171.jpg,houses/images/77.jpg,82,rajeev,001,2020-11-20_20h22.28.634,test2,2020.2.5,Win32,60,,,,,,,
,,,,m,4.82008,0,82,82,82,1,houses/images/172.jpg,houses/images/154.jpg,83,rajeev,001,2020-11-20_20h22.28.634,test2,2020.2.5,Win32,60,,,,,,,
,,,,m,2.363785,0,83,83,83,1,houses/images/273.jpg,houses/images/210.jpg,84,rajeev,001,2020-11-20_20h22.28.634,test2,2020.2.5,Win32,60,,,,,,,
,,,,z,2.19733,0,84,84,84,1,houses/images/174.jpg,houses/images/121.jpg,85,rajeev,001,2020-11-20_20h22.28.634,test2,2020.2.5,Win32,60,,,,,,,
,,,,z,3.6236,0,85,85,85,1,houses/images/175.jpg,houses/images/47.jpg,86,rajeev,001,2020-11-20_20h22.28.634,test2,2020.2.5,Win32,60,,,,,,,
,,,,m,2.507645,0,86,86,86,1,houses/images/176.jpg,houses/images/328.jpg,87,rajeev,001,2020-11-20_20h22.28.634,test2,2020.2.5,Win32,60,,,,,,,
,,,,z,6.530165,0,87,87,87,1,houses/images/177.jpg,houses/images/35.jpg,88,rajeev,001,2020-11-20_20h22.28.634,test2,2020.2.5,Win32,60,,,,,,,
,,,,m,1.59753,0,88,88,88,1,houses/images/178.jpg,houses/images/299.jpg,89,rajeev,001,2020-11-20_20h22.28.634,test2,2020.2.5,Win32,60,,,,,,,
,,,,m,10.26696,0,89,89,89,1,houses/images/179.jpg,houses/images/283.jpg,90,rajeev,001,2020-11-20_20h22.28.634,test2,2020.2.5,Win32,60,,,,,,,
,,,,z,4.058895,0,90,90,90,1,houses/images/18.jpg,houses/images/182.jpg,91,rajeev,001,2020-11-20_20h22.28.634,test2,2020.2.5,Win32,60,,,,,,,
,,,,z,5.582595,0,91,91,91,1,houses/images/180.jpg,houses/images/327.jpg,92,rajeev,001,2020-11-20_20h22.28.634,test2,2020.2.5,Win32,60,,,,,,,
,,,,m,11.50592,0,92,92,92,1,houses/images/281.jpg,houses/images/334.jpg,93,rajeev,001,2020-11-20_20h22.28.634,test2,2020.2.5,Win32,60,,,,,,,
,,,,m,1.582135,0,93,93,93,1,houses/images/182.jpg,houses/images/75.jpg,94,rajeev,001,2020-11-20_20h22.28.634,test2,2020.2.5,Win32,60,,,,,,,
,,,,z,9.364815,0,94,94,94,1,houses/images/183.jpg,houses/images/137.jpg,95,rajeev,001,2020-11-20_20h22.28.634,test2,2020.2.5,Win32,60,,,,,,,
,,,,m,3.096465,0,95,95,95,1,houses/images/184.jpg,houses/images/344.jpg,96,rajeev,001,2020-11-20_20h22.28.634,test2,2020.2.5,Win32,60,,,,,,,
,,,,m,8.28648,0,96,96,96,1,houses/images/185.jpg,houses/images/285.jpg,97,rajeev,001,2020-11-20_20h22.28.634,test2,2020.2.5,Win32,60,,,,,,,
,,,,z,9.18964,0,97,97,97,1,houses/images/186.jpg,houses/images/230.jpg,98,rajeev,001,2020-11-20_20h22.28.634,test2,2020.2.5,Win32,60,,,,,,,
,,,,z,6.14123,0,98,98,98,1,houses/images/187.jpg,houses/images/3.jpg,99,rajeev,001,2020-11-20_20h22.28.634,test2,2020.2.5,Win32,60,,,,,,,
,,,,m,5.93293,0,99,99,99,1,houses/images/188.jpg,houses/images/304.jpg,100,rajeev,001,2020-11-20_20h22.28.634,test2,2020.2.5,Win32,60,,,,,,,
,,,,m,3.44044,0,100,100,100,1,houses/images/189.jpg,houses/images/17.jpg,101,rajeev,001,2020-11-20_20h22.28.634,test2,2020.2.5,Win32,60,,,,,,,
,,,,m,3.12369,0,101,101,101,1,houses/images/19.jpg,houses/images/351.jpg,102,rajeev,001,2020-11-20_20h22.28.634,test2,2020.2.5,Win32,60,,,,,,,
,,,,m,2.375885,0,102,102,102,1,houses/images/190.jpg,houses/images/307.jpg,103,rajeev,001,2020-11-20_20h22.28.634,test2,2020.2.5,Win32,60,,,,,,,
,,,,m,8.11106,0,103,103,103,1,houses/images/191.jpg,houses/images/326.jpg,104,rajeev,001,2020-11-20_20h22.28.634,test2,2020.2.5,Win32,60,,,,,,,
,,,,z,2.49874,0,104,104,104,1,houses/images/292.jpg,houses/images/240.jpg,105,rajeev,001,2020-11-20_20h22.28.634,test2,2020.2.5,Win32,60,,,,,,,
,,,,m,2.09299,0,105,105,105,1,houses/images/193.jpg,houses/images/243.jpg,106,rajeev,001,2020-11-20_20h22.28.634,test2,2020.2.5,Win32,60,,,,,,,
,,,,z,1.933065,0,106,106,106,1,houses/images/194.jpg,houses/images/291.jpg,107,rajeev,001,2020-11-20_20h22.28.634,test2,2020.2.5,Win32,60,,,,,,,
,,,,z,11.855015,0,107,107,107,1,houses/images/195.jpg,houses/images/361.jpg,108,rajeev,001,2020-11-20_20h22.28.634,test2,2020.2.5,Win32,60,,,,,,,
,,,,z,4.765885,0,108,108,108,1,houses/images/196.jpg,houses/images/30.jpg,109,rajeev,001,2020-11-20_20h22.28.634,test2,2020.2.5,Win32,60,,,,,,,
,,,,z,2.634415,0,109,109,109,1,houses/images/197.jpg,houses/images/22.jpg,110,rajeev,001,2020-11-20_20h22.28.634,test2,2020.2.5,Win32,60,,,,,,,
,,,,z,6.706145,0,110,110,110,1,houses/images/198.jpg,houses/images/250.jpg,111,rajeev,001,2020-11-20_20h22.28.634,test2,2020.2.5,Win32,60,,,,,,,
,,,,z,7.09136,0,111,111,111,1,houses/images/199.jpg,houses/images/323.jpg,112,rajeev,001,2020-11-20_20h22.28.634,test2,2020.2.5,Win32,60,,,,,,,
,,,,z,1.76888,0,112,112,112,1,houses/images/2.jpg,houses/images/187.jpg,113,rajeev,001,2020-11-20_20h22.28.634,test2,2020.2.5,Win32,60,,,,,,,
,,,,z,3.834815,0,113,113,113,1,houses/images/20.jpg,houses/images/100.jpg,114,rajeev,001,2020-11-20_20h22.28.634,test2,2020.2.5,Win32,60,,,,,,,
,,,,z,4.864555,0,114,114,114,1,houses/images/200.jpg,houses/images/238.jpg,115,rajeev,001,2020-11-20_20h22.28.634,test2,2020.2.5,Win32,60,,,,,,,
,,,,m,6.276775,0,115,115,115,1,houses/images/201.jpg,houses/images/58.jpg,116,rajeev,001,2020-11-20_20h22.28.634,test2,2020.2.5,Win32,60,,,,,,,
,,,,z,5.096215,0,116,116,116,1,houses/images/202.jpg,houses/images/205.jpg,117,rajeev,001,2020-11-20_20h22.28.634,test2,2020.2.5,Win32,60,,,,,,,
,,,,m,10.93881,0,117,117,117,1,houses/images/203.jpg,houses/images/40.jpg,118,rajeev,001,2020-11-20_20h22.28.634,test2,2020.2.5,Win32,60,,,,,,,
,,,,z,6.628485,0,118,118,118,1,houses/images/204.jpg,houses/images/64.jpg,119,rajeev,001,2020-11-20_20h22.28.634,test2,2020.2.5,Win32,60,,,,,,,
,,,,z,14.15882,0,119,119,119,1,houses/images/205.jpg,houses/images/155.jpg,120,rajeev,001,2020-11-20_20h22.28.634,test2,2020.2.5,Win32,60,,,,,,,
,,,,z,19.17259,0,120,120,120,1,houses/images/206.jpg,houses/images/199.jpg,121,rajeev,001,2020-11-20_20h22.28.634,test2,2020.2.5,Win32,60,,,,,,,
,,,,m,2.39182,0,121,121,121,1,houses/images/207.jpg,houses/images/233.jpg,122,rajeev,001,2020-11-20_20h22.28.634,test2,2020.2.5,Win32,60,,,,,,,
,,,,z,2.830835,0,122,122,122,1,houses/images/208.jpg,houses/images/8.jpg,123,rajeev,001,2020-11-20_20h22.28.634,test2,2020.2.5,Win32,60,,,,,,,
,,,,z,1.76489,0,123,123,123,1,houses/images/209.jpg,houses/images/167.jpg,124,rajeev,001,2020-11-20_20h22.28.634,test2,2020.2.5,Win32,60,,,,,,,
,,,,m,5.73217,0,124,124,124,1,houses/images/21.jpg,houses/images/103.jpg,125,rajeev,001,2020-11-20_20h22.28.634,test2,2020.2.5,Win32,60,,,,,,,
,,,,z,1.44548,0,125,125,125,1,houses/images/210.jpg,houses/images/104.jpg,126,rajeev,001,2020-11-20_20h22.28.634,test2,2020.2.5,Win32,60,,,,,,,
,,,,m,1.74599,0,126,126,126,1,houses/images/211.jpg,houses/images/327.jpg,127,rajeev,001,2020-11-20_20h22.28.634,test2,2020.2.5,Win32,60,,,,,,,
,,,,m,6.51728,0,127,127,127,1,houses/images/212.jpg,houses/images/253.jpg,128,rajeev,001,2020-11-20_20h22.28.634,test2,2020.2.5,Win32,60,,,,,,,
,,,,m,8.17943,0,128,128,128,1,houses/images/213.jpg,houses/images/26.jpg,129,rajeev,001,2020-11-20_20h22.28.634,test2,2020.2.5,Win32,60,,,,,,,
,,,,z,1.4589,0,129,129,129,1,houses/images/214.jpg,houses/images/198.jpg,130,rajeev,001,2020-11-20_20h22.28.634,test2,2020.2.5,Win32,60,,,,,,,
,,,,z,4.05075,0,130,130,130,1,houses/images/215.jpg,houses/images/4.jpg,131,rajeev,001,2020-11-20_20h22.28.634,test2,2020.2.5,Win32,60,,,,,,,
,,,,z,2.98991,0,131,131,131,1,houses/images/316.jpg,houses/images/62.jpg,132,rajeev,001,2020-11-20_20h22.28.634,test2,2020.2.5,Win32,60,,,,,,,
,,,,m,8.739405,0,132,132,132,1,houses/images/217.jpg,houses/images/114.jpg,133,rajeev,001,2020-11-20_20h22.28.634,test2,2020.2.5,Win32,60,,,,,,,
,,,,z,4.23654,0,133,133,133,1,houses/images/318.jpg,houses/images/308.jpg,134,rajeev,001,2020-11-20_20h22.28.634,test2,2020.2.5,Win32,60,,,,,,,
,,,,m,4.23165,0,134,134,134,1,houses/images/219.jpg,houses/images/254.jpg,135,rajeev,001,2020-11-20_20h22.28.634,test2,2020.2.5,Win32,60,,,,,,,
,,,,m,2.54287,0,135,135,135,1,houses/images/22.jpg,houses/images/170.jpg,136,rajeev,001,2020-11-20_20h22.28.634,test2,2020.2.5,Win32,60,,,,,,,
,,,,m,5.408395,0,136,136,136,1,houses/images/220.jpg,houses/images/179.jpg,137,rajeev,001,2020-11-20_20h22.28.634,test2,2020.2.5,Win32,60,,,,,,,
,,,,z,13.4292,0,137,137,137,1,houses/images/221.jpg,houses/images/238.jpg,138,rajeev,001,2020-11-20_20h22.28.634,test2,2020.2.5,Win32,60,,,,,,,
,,,,m,8.34081,0,138,138,138,1,houses/images/222.jpg,houses/images/256.jpg,139,rajeev,001,2020-11-20_20h22.28.634,test2,2020.2.5,Win32,60,,,,,,,
,,,,z,4.283485,0,139,139,139,1,houses/images/223.jpg,houses/images/322.jpg,140,rajeev,001,2020-11-20_20h22.28.634,test2,2020.2.5,Win32,60,,,,,,,
,,,,m,3.07944,0,140,140,140,1,houses/images/224.jpg,houses/images/209.jpg,141,rajeev,001,2020-11-20_20h22.28.634,test2,2020.2.5,Win32,60,,,,,,,
,,,,z,1.57388,0,141,141,141,1,houses/images/225.jpg,houses/images/219.jpg,142,rajeev,001,2020-11-20_20h22.28.634,test2,2020.2.5,Win32,60,,,,,,,
,,,,z,2.417795,0,142,142,142,1,houses/images/226.jpg,houses/images/79.jpg,143,rajeev,001,2020-11-20_20h22.28.634,test2,2020.2.5,Win32,60,,,,,,,
,,,,z,8.45011,0,143,143,143,1,houses/images/227.jpg,houses/images/279.jpg,144,rajeev,001,2020-11-20_20h22.28.634,test2,2020.2.5,Win32,60,,,,,,,
,,,,m,2.94986,0,144,144,144,1,houses/images/228.jpg,houses/images/111.jpg,145,rajeev,001,2020-11-20_20h22.28.634,test2,2020.2.5,Win32,60,,,,,,,
,,,,m,2.007825,0,145,145,145,1,houses/images/229.jpg,houses/images/257.jpg,146,rajeev,001,2020-11-20_20h22.28.634,test2,2020.2.5,Win32,60,,,,,,,
,,,,m,2.68141,0,146,146,146,1,houses/images/23.jpg,houses/images/318.jpg,147,rajeev,001,2020-11-20_20h22.28.634,test2,2020.2.5,Win32,60,,,,,,,
,,,,m,4.03847,0,147,147,147,1,houses/images/230.jpg,houses/images/312.jpg,148,rajeev,001,2020-11-20_20h22.28.634,test2,2020.2.5,Win32,60,,,,,,,
,,,,m,1.60841,0,148,148,148,1,houses/images/231.jpg,houses/images/253.jpg,149,rajeev,001,2020-11-20_20h22.28.634,test2,2020.2.5,Win32,60,,,,,,,
,,,,m,2.9882,0,149,149,149,1,houses/images/232.jpg,houses/images/236.jpg,150,rajeev,001,2020-11-20_20h22.28.634,test2,2020.2.5,Win32,60,,,,,,,
,,,,m,1.701855,0,150,150,150,1,houses/images/233.jpg,houses/images/66.jpg,151,rajeev,001,2020-11-20_20h22.28.634,test2,2020.2.5,Win32,60,,,,,,,
,,,,z,4.797945,0,151,151,151,1,houses/images/234.jpg,houses/images/138.jpg,152,rajeev,001,2020-11-20_20h22.28.634,test2,2020.2.5,Win32,60,,,,,,,
,,,,z,4.03492,0,152,152,152,1,houses/images/235.jpg,houses/images/124.jpg,153,rajeev,001,2020-11-20_20h22.28.634,test2,2020.2.5,Win32,60,,,,,,,
,,,,m,2.578275,0,153,153,153,1,houses/images/236.jpg,houses/images/160.jpg,154,rajeev,001,2020-11-20_20h22.28.634,test2,2020.2.5,Win32,60,,,,,,,
,,,,m,2.25622,0,154,154,154,1,houses/images/237.jpg,houses/images/314.jpg,155,rajeev,001,2020-11-20_20h22.28.634,test2,2020.2.5,Win32,60,,,,,,,
,,,,m,2.52189,0,155,155,155,1,houses/images/238.jpg,houses/images/145.jpg,156,rajeev,001,2020-11-20_20h22.28.634,test2,2020.2.5,Win32,60,,,,,,,
,,,,m,1.62893,0,156,156,156,1,houses/images/239.jpg,houses/images/195.jpg,157,rajeev,001,2020-11-20_20h22.28.634,test2,2020.2.5,Win32,60,,,,,,,
,,,,z,2.038385,0,157,157,157,1,houses/images/24.jpg,houses/images/0.jpg,158,rajeev,001,2020-11-20_20h22.28.634,test2,2020.2.5,Win32,60,,,,,,,
,,,,m,1.99867,0,158,158,158,1,houses/images/240.jpg,houses/images/81.jpg,159,rajeev,001,2020-11-20_20h22.28.634,test2,2020.2.5,Win32,60,,,,,,,
,,,,m,2.134175,0,159,159,159,1,houses/images/241.jpg,houses/images/226.jpg,160,rajeev,001,2020-11-20_20h22.28.634,test2,2020.2.5,Win32,60,,,,,,,
,,,,z,1.79382,0,160,160,160,1,houses/images/342.jpg,houses/images/319.jpg,161,rajeev,001,2020-11-20_20h22.28.634,test2,2020.2.5,Win32,60,,,,,,,
,,,,z,2.470255,0,161,161,161,1,houses/images/243.jpg,houses/images/23.jpg,162,rajeev,001,2020-11-20_20h22.28.634,test2,2020.2.5,Win32,60,,,,,,,
,,,,m,1.38743,0,162,162,162,1,houses/images/244.jpg,houses/images/146.jpg,163,rajeev,001,2020-11-20_20h22.28.634,test2,2020.2.5,Win32,60,,,,,,,
,,,,m,2.102495,0,163,163,163,1,houses/images/245.jpg,houses/images/28.jpg,164,rajeev,001,2020-11-20_20h22.28.634,test2,2020.2.5,Win32,60,,,,,,,
,,,,z,1.17678,0,164,164,164,1,houses/images/246.jpg,houses/images/157.jpg,165,rajeev,001,2020-11-20_20h22.28.634,test2,2020.2.5,Win32,60,,,,,,,
,,,,z,3.86035,0,165,165,165,1,houses/images/247.jpg,houses/images/2.jpg,166,rajeev,001,2020-11-20_20h22.28.634,test2,2020.2.5,Win32,60,,,,,,,
,,,,z,2.42457,0,166,166,166,1,houses/images/248.jpg,houses/images/87.jpg,167,rajeev,001,2020-11-20_20h22.28.634,test2,2020.2.5,Win32,60,,,,,,,
,,,,z,10.092395,0,167,167,167,1,houses/images/249.jpg,houses/images/270.jpg,168,rajeev,001,2020-11-20_20h22.28.634,test2,2020.2.5,Win32,60,,,,,,,
,,,,m,1.97419,0,168,168,168,1,houses/images/25.jpg,houses/images/67.jpg,169,rajeev,001,2020-11-20_20h22.28.634,test2,2020.2.5,Win32,60,,,,,,,
,,,,m,1.30237,0,169,169,169,1,houses/images/250.jpg,houses/images/234.jpg,170,rajeev,001,2020-11-20_20h22.28.634,test2,2020.2.5,Win32,60,,,,,,,
,,,,z,1.457975,0,170,170,170,1,houses/images/251.jpg,houses/images/16.jpg,171,rajeev,001,2020-11-20_20h22.28.634,test2,2020.2.5,Win32,60,,,,,,,
,,,,m,3.236805,0,171,171,171,1,houses/images/252.jpg,houses/images/12.jpg,172,rajeev,001,2020-11-20_20h22.28.634,test2,2020.2.5,Win32,60,,,,,,,
,,,,z,4.376465,0,172,172,172,1,houses/images/253.jpg,houses/images/185.jpg,173,rajeev,001,2020-11-20_20h22.28.634,test2,2020.2.5,Win32,60,,,,,,,
,,,,z,1.798155,0,173,173,173,1,houses/images/254.jpg,houses/images/39.jpg,174,rajeev,001,2020-11-20_20h22.28.634,test2,2020.2.5,Win32,60,,,,,,,
,,,,z,1.39616,0,174,174,174,1,houses/images/255.jpg,houses/images/237.jpg,175,rajeev,001,2020-11-20_20h22.28.634,test2,2020.2.5,Win32,60,,,,,,,
,,,,m,1.99901,0,175,175,175,1,houses/images/256.jpg,houses/images/356.jpg,176,rajeev,001,2020-11-20_20h22.28.634,test2,2020.2.5,Win32,60,,,,,,,
,,,,z,6.52234,0,176,176,176,1,houses/images/257.jpg,houses/images/107.jpg,177,rajeev,001,2020-11-20_20h22.28.634,test2,2020.2.5,Win32,60,,,,,,,
,,,,z,4.931365,0,177,177,177,1,houses/images/258.jpg,houses/images/84.jpg,178,rajeev,001,2020-11-20_20h22.28.634,test2,2020.2.5,Win32,60,,,,,,,
,,,,z,1.88318,0,178,178,178,1,houses/images/259.jpg,houses/images/119.jpg,179,rajeev,001,2020-11-20_20h22.28.634,test2,2020.2.5,Win32,60,,,,,,,
,,,,m,2.876855,0,179,179,179,1,houses/images/26.jpg,houses/images/227.jpg,180,rajeev,001,2020-11-20_20h22.28.634,test2,2020.2.5,Win32,60,,,,,,,
,,,,z,3.009375,0,180,180,180,1,houses/images/260.jpg,houses/images/238.jpg,181,rajeev,001,2020-11-20_20h22.28.634,test2,2020.2.5,Win32,60,,,,,,,
,,,,z,2.751375,0,181,181,181,1,houses/images/261.jpg,houses/images/337.jpg,182,rajeev,001,2020-11-20_20h22.28.634,test2,2020.2.5,Win32,60,,,,,,,
,,,,m,1.562695,0,182,182,182,1,houses/images/262.jpg,houses/images/214.jpg,183,rajeev,001,2020-11-20_20h22.28.634,test2,2020.2.5,Win32,60,,,,,,,
,,,,z,1.87806,0,183,183,183,1,houses/images/263.jpg,houses/images/239.jpg,184,rajeev,001,2020-11-20_20h22.28.634,test2,2020.2.5,Win32,60,,,,,,,
,,,,m,2.086285,0,184,184,184,1,houses/images/264.jpg,houses/images/149.jpg,185,rajeev,001,2020-11-20_20h22.28.634,test2,2020.2.5,Win32,60,,,,,,,
,,,,z,13.72108,0,185,185,185,1,houses/images/265.jpg,houses/images/68.jpg,186,rajeev,001,2020-11-20_20h22.28.634,test2,2020.2.5,Win32,60,,,,,,,
,,,,z,2.441375,0,186,186,186,1,houses/images/266.jpg,houses/images/271.jpg,187,rajeev,001,2020-11-20_20h22.28.634,test2,2020.2.5,Win32,60,,,,,,,
,,,,m,4.39412,0,187,187,187,1,houses/images/267.jpg,houses/images/87.jpg,188,rajeev,001,2020-11-20_20h22.28.634,test2,2020.2.5,Win32,60,,,,,,,
,,,,z,3.63797,0,188,188,188,1,houses/images/268.jpg,houses/images/348.jpg,189,rajeev,001,2020-11-20_20h22.28.634,test2,2020.2.5,Win32,60,,,,,,,
,,,,z,1.57884,0,189,189,189,1,houses/images/269.jpg,houses/images/228.jpg,190,rajeev,001,2020-11-20_20h22.28.634,test2,2020.2.5,Win32,60,,,,,,,
,,,,m,3.23415,0,190,190,190,1,houses/images/27.jpg,houses/images/317.jpg,191,rajeev,001,2020-11-20_20h22.28.634,test2,2020.2.5,Win32,60,,,,,,,
,,,,m,2.777315,0,191,191,191,1,houses/images/270.jpg,houses/images/10.jpg,192,rajeev,001,2020-11-20_20h22.28.634,test2,2020.2.5,Win32,60,,,,,,,
,,,,m,22.42531,0,192,192,192,1,houses/images/271.jpg,houses/images/222.jpg,193,rajeev,001,2020-11-20_20h22.28.634,test2,2020.2.5,Win32,60,,,,,,,
,,,,z,3.643125,0,193,193,193,1,houses/images/272.jpg,houses/images/314.jpg,194,rajeev,001,2020-11-20_20h22.28.634,test2,2020.2.5,Win32,60,,,,,,,
,,,,m,1.380245,0,194,194,194,1,houses/images/273.jpg,houses/images/28.jpg,195,rajeev,001,2020-11-20_20h22.28.634,test2,2020.2.5,Win32,60,,,,,,,
,,,,z,3.766,0,195,195,195,1,houses/images/174.jpg,houses/images/294.jpg,196,rajeev,001,2020-11-20_20h22.28.634,test2,2020.2.5,Win32,60,,,,,,,
,,,,z,1.5072,0,196,196,196,1,houses/images/275.jpg,houses/images/60.jpg,197,rajeev,001,2020-11-20_20h22.28.634,test2,2020.2.5,Win32,60,,,,,,,
,,,,m,4.4981,0,197,197,197,1,houses/images/276.jpg,houses/images/144.jpg,198,rajeev,001,2020-11-20_20h22.28.634,test2,2020.2.5,Win32,60,,,,,,,
,,,,m,2.341935,0,198,198,198,1,houses/images/277.jpg,houses/images/168.jpg,199,rajeev,001,2020-11-20_20h22.28.634,test2,2020.2.5,Win32,60,,,,,,,
,,,,m,2.84344,0,199,199,199,1,houses/images/278.jpg,houses/images/206.jpg,200,rajeev,001,2020-11-20_20h22.28.634,test2,2020.2.5,Win32,60,,,,,,,
,,,,z,15.33244,,,,,,houses/images/279.jpg,houses/images/91.jpg,1,rajeev,001,2020-11-20_20h22.28.634,test2,2020.2.5,Win32,60,space,2.17117,0,0,0,0,1
,,,,z,2.463265,,,,,,houses/images/28.jpg,houses/images/49.jpg,2,rajeev,001,2020-11-20_20h22.28.634,test2,2020.2.5,Win32,60,,,0,1,1,1,1
,,,,m,1.286495,,,,,,houses/images/280.jpg,houses/images/163.jpg,3,rajeev,001,2020-11-20_20h22.28.634,test2,2020.2.5,Win32,60,,,0,2,2,2,1
,,,,m,2.61116,,,,,,houses/images/281.jpg,houses/images/176.jpg,4,rajeev,001,2020-11-20_20h22.28.634,test2,2020.2.5,Win32,60,,,0,3,3,3,1
,,,,m,3.282245,,,,,,houses/images/282.jpg,houses/images/263.jpg,5,rajeev,001,2020-11-20_20h22.28.634,test2,2020.2.5,Win32,60,,,0,4,4,4,1
,,,,z,3.98298,,,,,,houses/images/283.jpg,houses/images/303.jpg,6,rajeev,001,2020-11-20_20h22.28.634,test2,2020.2.5,Win32,60,,,0,5,5,5,1
,,,,z,4.301645,,,,,,houses/images/284.jpg,houses/images/184.jpg,7,rajeev,001,2020-11-20_20h22.28.634,test2,2020.2.5,Win32,60,,,0,6,6,6,1
,,,,z,1.6234,,,,,,houses/images/285.jpg,houses/images/264.jpg,8,rajeev,001,2020-11-20_20h22.28.634,test2,2020.2.5,Win32,60,,,0,7,7,7,1
,,,,m,1.392505,,,,,,houses/images/286.jpg,houses/images/89.jpg,9,rajeev,001,2020-11-20_20h22.28.634,test2,2020.2.5,Win32,60,,,0,8,8,8,1
,,,,m,1.63008,,,,,,houses/images/187.jpg,houses/images/350.jpg,10,rajeev,001,2020-11-20_20h22.28.634,test2,2020.2.5,Win32,60,,,0,9,9,9,1
,,,,z,1.182105,,,,,,houses/images/288.jpg,houses/images/267.jpg,11,rajeev,001,2020-11-20_20h22.28.634,test2,2020.2.5,Win32,60,,,0,10,10,10,1
,,,,m,10.634965,,,,,,houses/images/289.jpg,houses/images/332.jpg,12,rajeev,001,2020-11-20_20h22.28.634,test2,2020.2.5,Win32,60,,,0,11,11,11,1
,,,,m,4.90922,,,,,,houses/images/29.jpg,houses/images/61.jpg,13,rajeev,001,2020-11-20_20h22.28.634,test2,2020.2.5,Win32,60,,,0,12,12,12,1
,,,,z,3.549295,,,,,,houses/images/290.jpg,houses/images/102.jpg,14,rajeev,001,2020-11-20_20h22.28.634,test2,2020.2.5,Win32,60,,,0,13,13,13,1
,,,,m,1.916535,,,,,,houses/images/291.jpg,houses/images/220.jpg,15,rajeev,001,2020-11-20_20h22.28.634,test2,2020.2.5,Win32,60,,,0,14,14,14,1
,,,,z,5.785505,,,,,,houses/images/292.jpg,houses/images/121.jpg,16,rajeev,001,2020-11-20_20h22.28.634,test2,2020.2.5,Win32,60,,,0,15,15,15,1
,,,,z,5.230095,,,,,,houses/images/293.jpg,houses/images/25.jpg,17,rajeev,001,2020-11-20_20h22.28.634,test2,2020.2.5,Win32,60,,,0,16,16,16,1
,,,,m,1.418395,,,,,,houses/images/294.jpg,houses/images/284.jpg,18,rajeev,001,2020-11-20_20h22.28.634,test2,2020.2.5,Win32,60,,,0,17,17,17,1
,,,,z,1.94663,,,,,,houses/images/295.jpg,houses/images/273.jpg,19,rajeev,001,2020-11-20_20h22.28.634,test2,2020.2.5,Win32,60,,,0,18,18,18,1
,,,,z,1.68844,,,,,,houses/images/296.jpg,houses/images/122.jpg,20,rajeev,001,2020-11-20_20h22.28.634,test2,2020.2.5,Win32,60,,,0,19,19,19,1
,,,,z,9.9338,,,,,,houses/images/297.jpg,houses/images/217.jpg,21,rajeev,001,2020-11-20_20h22.28.634,test2,2020.2.5,Win32,60,,,0,20,20,20,1
,,,,z,2.45522,,,,,,houses/images/298.jpg,houses/images/178.jpg,22,rajeev,001,2020-11-20_20h22.28.634,test2,2020.2.5,Win32,60,,,0,21,21,21,1
,,,,z,2.309495,,,,,,houses/images/299.jpg,houses/images/43.jpg,23,rajeev,001,2020-11-20_20h22.28.634,test2,2020.2.5,Win32,60,,,0,22,22,22,1
,,,,m,5.04153,,,,,,houses/images/3.jpg,houses/images/229.jpg,24,rajeev,001,2020-11-20_20h22.28.634,test2,2020.2.5,Win32,60,,,0,23,23,23,1
,,,,m,3.160165,,,,,,houses/images/30.jpg,houses/images/177.jpg,25,rajeev,001,2020-11-20_20h22.28.634,test2,2020.2.5,Win32,60,,,0,24,24,24,1
,,,,m,4.53189,,,,,,houses/images/300.jpg,houses/images/342.jpg,26,rajeev,001,2020-11-20_20h22.28.634,test2,2020.2.5,Win32,60,,,0,25,25,25,1
,,,,z,2.890035,,,,,,houses/images/201.jpg,houses/images/57.jpg,27,rajeev,001,2020-11-20_20h22.28.634,test2,2020.2.5,Win32,60,,,0,26,26,26,1
,,,,m,3.063125,,,,,,houses/images/302.jpg,houses/images/186.jpg,28,rajeev,001,2020-11-20_20h22.28.634,test2,2020.2.5,Win32,60,,,0,27,27,27,1
,,,,z,3.81542,,,,,,houses/images/303.jpg,houses/images/131.jpg,29,rajeev,001,2020-11-20_20h22.28.634,test2,2020.2.5,Win32,60,,,0,28,28,28,1
,,,,z,3.019805,,,,,,houses/images/304.jpg,houses/images/183.jpg,30,rajeev,001,2020-11-20_20h22.28.634,test2,2020.2.5,Win32,60,,,0,29,29,29,1
,,,,z,1.26745,,,,,,houses/images/305.jpg,houses/images/200.jpg,31,rajeev,001,2020-11-20_20h22.28.634,test2,2020.2.5,Win32,60,,,0,30,30,30,1
,,,,z,1.79322,,,,,,houses/images/306.jpg,houses/images/94.jpg,32,rajeev,001,2020-11-20_20h22.28.634,test2,2020.2.5,Win32,60,,,0,31,31,31,1
,,,,z,1.968705,,,,,,houses/images/307.jpg,houses/images/96.jpg,33,rajeev,001,2020-11-20_20h22.28.634,test2,2020.2.5,Win32,60,,,0,32,32,32,1
,,,,m,7.23489,,,,,,houses/images/308.jpg,houses/images/76.jpg,34,rajeev,001,2020-11-20_20h22.28.634,test2,2020.2.5,Win32,60,,,0,33,33,33,1
,,,,z,4.16137,,,,,,houses/images/309.jpg,houses/images/78.jpg,35,rajeev,001,2020-11-20_20h22.28.634,test2,2020.2.5,Win32,60,,,0,34,34,34,1
,,,,z,2.280165,,,,,,houses/images/31.jpg,houses/images/76.jpg,36,rajeev,001,2020-11-20_20h22.28.634,test2,2020.2.5,Win32,60,,,0,35,35,35,1
,,,,z,2.577045,,,,,,houses/images/310.jpg,houses/images/128.jpg,37,rajeev,001,2020-11-20_20h22.28.634,test2,2020.2.5,Win32,60,,,0,36,36,36,1
,,,,z,3.842295,,,,,,houses/images/311.jpg,houses/images/190.jpg,38,rajeev,001,2020-11-20_20h22.28.634,test2,2020.2.5,Win32,60,,,0,37,37,37,1
,,,,z,5.153535,,,,,,houses/images/312.jpg,houses/images/5.jpg,39,rajeev,001,2020-11-20_20h22.28.634,test2,2020.2.5,Win32,60,,,0,38,38,38,1
,,,,z,6.380245,,,,,,houses/images/313.jpg,houses/images/188.jpg,40,rajeev,001,2020-11-20_20h22.28.634,test2,2020.2.5,Win32,60,,,0,39,39,39,1
,,,,m,2.261945,,,,,,houses/images/314.jpg,houses/images/342.jpg,41,rajeev,001,2020-11-20_20h22.28.634,test2,2020.2.5,Win32,60,,,0,40,40,40,1
,,,,m,3.513635,,,,,,houses/images/315.jpg,houses/images/288.jpg,42,rajeev,001,2020-11-20_20h22.28.634,test2,2020.2.5,Win32,60,,,0,41,41,41,1
,,,,z,1.95157,,,,,,houses/images/316.jpg,houses/images/321.jpg,43,rajeev,001,2020-11-20_20h22.28.634,test2,2020.2.5,Win32,60,,,0,42,42,42,1
,,,,z,8.08283,,,,,,houses/images/317.jpg,houses/images/82.jpg,44,rajeev,001,2020-11-20_20h22.28.634,test2,2020.2.5,Win32,60,,,0,43,43,43,1
,,,,z,1.458605,,,,,,houses/images/318.jpg,houses/images/169.jpg,45,rajeev,001,2020-11-20_20h22.28.634,test2,2020.2.5,Win32,60,,,0,44,44,44,1
,,,,z,1.829885,,,,,,houses/images/319.jpg,houses/images/224.jpg,46,rajeev,001,2020-11-20_20h22.28.634,test2,2020.2.5,Win32,60,,,0,45,45,45,1
,,,,m,3.453685,,,,,,houses/images/32.jpg,houses/images/175.jpg,47,rajeev,001,2020-11-20_20h22.28.634,test2,2020.2.5,Win32,60,,,0,46,46,46,1
,,,,m,5.232535,,,,,,houses/images/320.jpg,houses/images/247.jpg,48,rajeev,001,2020-11-20_20h22.28.634,test2,2020.2.5,Win32,60,,,0,47,47,47,1
,,,,z,1.477415,,,,,,houses/images/321.jpg,houses/images/97.jpg,49,rajeev,001,2020-11-20_20h22.28.634,test2,2020.2.5,Win32,60,,,0,48,48,48,1
,,,,z,1.27459,,,,,,houses/images/322.jpg,houses/images/74.jpg,50,rajeev,001,2020-11-20_20h22.28.634,test2,2020.2.5,Win32,60,,,0,49,49,49,1
,,,,m,2.309535,,,,,,houses/images/323.jpg,houses/images/148.jpg,51,rajeev,001,2020-11-20_20h22.28.634,test2,2020.2.5,Win32,60,,,0,50,50,50,1
,,,,m,1.794715,,,,,,houses/images/324.jpg,houses/images/313.jpg,52,rajeev,001,2020-11-20_20h22.28.634,test2,2020.2.5,Win32,60,,,0,51,51,51,1
,,,,z,1.10958,,,,,,houses/images/325.jpg,houses/images/11.jpg,53,rajeev,001,2020-11-20_20h22.28.634,test2,2020.2.5,Win32,60,,,0,52,52,52,1
,,,,z,2.815545,,,,,,houses/images/326.jpg,houses/images/21.jpg,54,rajeev,001,2020-11-20_20h22.28.634,test2,2020.2.5,Win32,60,,,0,53,53,53,1
,,,,z,2.08602,,,,,,houses/images/327.jpg,houses/images/281.jpg,55,rajeev,001,2020-11-20_20h22.28.634,test2,2020.2.5,Win32,60,,,0,54,54,54,1
,,,,z,1.314535,,,,,,houses/images/328.jpg,houses/images/172.jpg,56,rajeev,001,2020-11-20_20h22.28.634,test2,2020.2.5,Win32,60,,,0,55,55,55,1
,,,,z,1.62882,,,,,,houses/images/329.jpg,houses/images/273.jpg,57,rajeev,001,2020-11-20_20h22.28.634,test2,2020.2.5,Win32,60,,,0,56,56,56,1
,,,,z,3.086225,,,,,,houses/images/33.jpg,houses/images/239.jpg,58,rajeev,001,2020-11-20_20h22.28.634,test2,2020.2.5,Win32,60,,,0,57,57,57,1
,,,,m,1.423015,,,,,,houses/images/330.jpg,houses/images/333.jpg,59,rajeev,001,2020-11-20_20h22.28.634,test2,2020.2.5,Win32,60,,,0,58,58,58,1
,,,,m,2.104845,,,,,,houses/images/331.jpg,houses/images/361.jpg,60,rajeev,001,2020-11-20_20h22.28.634,test2,2020.2.5,Win32,60,,,0,59,59,59,1
,,,,z,2.087345,,,,,,houses/images/332.jpg,houses/images/91.jpg,61,rajeev,001,2020-11-20_20h22.28.634,test2,2020.2.5,Win32,60,,,0,60,60,60,1
,,,,z,4.96391,,,,,,houses/images/333.jpg,houses/images/158.jpg,62,rajeev,001,2020-11-20_20h22.28.634,test2,2020.2.5,Win32,60,,,0,61,61,61,1
,,,,m,2.14977,,,,,,houses/images/334.jpg,houses/images/10.jpg,63,rajeev,001,2020-11-20_20h22.28.634,test2,2020.2.5,Win32,60,,,0,62,62,62,1
,,,,z,2.79179,,,,,,houses/images/335.jpg,houses/images/331.jpg,64,rajeev,001,2020-11-20_20h22.28.634,test2,2020.2.5,Win32,60,,,0,63,63,63,1
,,,,z,7.3815,,,,,,houses/images/336.jpg,houses/images/171.jpg,65,rajeev,001,2020-11-20_20h22.28.634,test2,2020.2.5,Win32,60,,,0,64,64,64,1
,,,,m,1.13967,,,,,,houses/images/337.jpg,houses/images/226.jpg,66,rajeev,001,2020-11-20_20h22.28.634,test2,2020.2.5,Win32,60,,,0,65,65,65,1
,,,,m,1.29604,,,,,,houses/images/238.jpg,houses/images/214.jpg,67,rajeev,001,2020-11-20_20h22.28.634,test2,2020.2.5,Win32,60,,,0,66,66,66,1
,,,,z,4.55886,,,,,,houses/images/239.jpg,houses/images/130.jpg,68,rajeev,001,2020-11-20_20h22.28.634,test2,2020.2.5,Win32,60,,,0,67,67,67,1
,,,,z,2.601065,,,,,,houses/images/34.jpg,houses/images/85.jpg,69,rajeev,001,2020-11-20_20h22.28.634,test2,2020.2.5,Win32,60,,,0,68,68,68,1
,,,,z,1.68724,,,,,,houses/images/340.jpg,houses/images/248.jpg,70,rajeev,001,2020-11-20_20h22.28.634,test2,2020.2.5,Win32,60,,,0,69,69,69,1
,,,,z,1.46396,,,,,,houses/images/341.jpg,houses/images/215.jpg,71,rajeev,001,2020-11-20_20h22.28.634,test2,2020.2.5,Win32,60,,,0,70,70,70,1
,,,,z,1.63996,,,,,,houses/images/342.jpg,houses/images/155.jpg,72,rajeev,001,2020-11-20_20h22.28.634,test2,2020.2.5,Win32,60,,,0,71,71,71,1
,,,,m,1.834435,,,,,,houses/images/343.jpg,houses/images/193.jpg,73,rajeev,001,2020-11-20_20h22.28.634,test2,2020.2.5,Win32,60,,,0,72,72,72,1
,,,,z,1.089055,,,,,,houses/images/344.jpg,houses/images/324.jpg,74,rajeev,001,2020-11-20_20h22.28.634,test2,2020.2.5,Win32,60,,,0,73,73,73,1
,,,,m,3.192645,,,,,,houses/images/345.jpg,houses/images/86.jpg,75,rajeev,001,2020-11-20_20h22.28.634,test2,2020.2.5,Win32,60,,,0,74,74,74,1
,,,,z,1.177595,,,,,,houses/images/246.jpg,houses/images/295.jpg,76,rajeev,001,2020-11-20_20h22.28.634,test2,2020.2.5,Win32,60,,,0,75,75,75,1
,,,,m,1.31134,,,,,,houses/images/347.jpg,houses/images/292.jpg,77,rajeev,001,2020-11-20_20h22.28.634,test2,2020.2.5,Win32,60,,,0,76,76,76,1
,,,,m,5.736815,,,,,,houses/images/348.jpg,houses/images/55.jpg,78,rajeev,001,2020-11-20_20h22.28.634,test2,2020.2.5,Win32,60,,,0,77,77,77,1
,,,,m,1.448385,,,,,,houses/images/349.jpg,houses/images/1.jpg,79,rajeev,001,2020-11-20_20h22.28.634,test2,2020.2.5,Win32,60,,,0,78,78,78,1
,,,,z,6.31592,,,,,,houses/images/35.jpg,houses/images/73.jpg,80,rajeev,001,2020-11-20_20h22.28.634,test2,2020.2.5,Win32,60,,,0,79,79,79,1
,,,,z,2.25628,,,,,,houses/images/350.jpg,houses/images/44.jpg,81,rajeev,001,2020-11-20_20h22.28.634,test2,2020.2.5,Win32,60,,,0,80,80,80,1
,,,,z,1.451585,,,,,,houses/images/351.jpg,houses/images/6.jpg,82,rajeev,001,2020-11-20_20h22.28.634,test2,2020.2.5,Win32,60,,,0,81,81,81,1
,,,,m,2.90994,,,,,,houses/images/352.jpg,houses/images/20.jpg,83,rajeev,001,2020-11-20_20h22.28.634,test2,2020.2.5,Win32,60,,,0,82,82,82,1
,,,,m,5.164185,,,,,,houses/images/353.jpg,houses/images/18.jpg,84,rajeev,001,2020-11-20_20h22.28.634,test2,2020.2.5,Win32,60,,,0,83,83,83,1
,,,,m,2.28567,,,,,,houses/images/354.jpg,houses/images/347.jpg,85,rajeev,001,2020-11-20_20h22.28.634,test2,2020.2.5,Win32,60,,,0,84,84,84,1
,,,,z,2.97785,,,,,,houses/images/355.jpg,houses/images/27.jpg,86,rajeev,001,2020-11-20_20h22.28.634,test2,2020.2.5,Win32,60,,,0,85,85,85,1
,,,,z,2.078105,,,,,,houses/images/356.jpg,houses/images/276.jpg,87,rajeev,001,2020-11-20_20h22.28.634,test2,2020.2.5,Win32,60,,,0,86,86,86,1
,,,,z,1.95937,,,,,,houses/images/357.jpg,houses/images/345.jpg,88,rajeev,001,2020-11-20_20h22.28.634,test2,2020.2.5,Win32,60,,,0,87,87,87,1
,,,,m,2.524515,,,,,,houses/images/358.jpg,houses/images/235.jpg,89,rajeev,001,2020-11-20_20h22.28.634,test2,2020.2.5,Win32,60,,,0,88,88,88,1
,,,,z,1.241865,,,,,,houses/images/359.jpg,houses/images/115.jpg,90,rajeev,001,2020-11-20_20h22.28.634,test2,2020.2.5,Win32,60,,,0,89,89,89,1
,,,,m,2.25357,,,,,,houses/images/36.jpg,houses/images/310.jpg,91,rajeev,001,2020-11-20_20h22.28.634,test2,2020.2.5,Win32,60,,,0,90,90,90,1
,,,,m,2.14579,,,,,,houses/images/360.jpg,houses/images/93.jpg,92,rajeev,001,2020-11-20_20h22.28.634,test2,2020.2.5,Win32,60,,,0,91,91,91,1
,,,,z,3.462375,,,,,,houses/images/361.jpg,houses/images/212.jpg,93,rajeev,001,2020-11-20_20h22.28.634,test2,2020.2.5,Win32,60,,,0,92,92,92,1
,,,,z,2.000495,,,,,,houses/images/62.jpg,houses/images/51.jpg,94,rajeev,001,2020-11-20_20h22.28.634,test2,2020.2.5,Win32,60,,,0,93,93,93,1
,,,,z,1.265125,,,,,,houses/images/37.jpg,houses/images/108.jpg,95,rajeev,001,2020-11-20_20h22.28.634,test2,2020.2.5,Win32,60,,,0,94,94,94,1
,,,,z,1.45961,,,,,,houses/images/38.jpg,houses/images/127.jpg,96,rajeev,001,2020-11-20_20h22.28.634,test2,2020.2.5,Win32,60,,,0,95,95,95,1
,,,,m,1.535895,,,,,,houses/images/39.jpg,houses/images/52.jpg,97,rajeev,001,2020-11-20_20h22.28.634,test2,2020.2.5,Win32,60,,,0,96,96,96,1
,,,,z,1.964375,,,,,,houses/images/4.jpg,houses/images/318.jpg,98,rajeev,001,2020-11-20_20h22.28.634,test2,2020.2.5,Win32,60,,,0,97,97,97,1
,,,,m,2.569425,,,,,,houses/images/40.jpg,houses/images/201.jpg,99,rajeev,001,2020-11-20_20h22.28.634,test2,2020.2.5,Win32,60,,,0,98,98,98,1
,,,,z,1.34984,,,,,,houses/images/41.jpg,houses/images/7.jpg,100,rajeev,001,2020-11-20_20h22.28.634,test2,2020.2.5,Win32,60,,,0,99,99,99,1
,,,,m,1.320595,,,,,,houses/images/42.jpg,houses/images/340.jpg,101,rajeev,001,2020-11-20_20h22.28.634,test2,2020.2.5,Win32,60,,,0,100,100,100,1
,,,,z,1.065385,,,,,,houses/images/43.jpg,houses/images/150.jpg,102,rajeev,001,2020-11-20_20h22.28.634,test2,2020.2.5,Win32,60,,,0,101,101,101,1
,,,,m,1.070385,,,,,,houses/images/44.jpg,houses/images/246.jpg,103,rajeev,001,2020-11-20_20h22.28.634,test2,2020.2.5,Win32,60,,,0,102,102,102,1
,,,,m,2.319615,,,,,,houses/images/145.jpg,houses/images/18.jpg,104,rajeev,001,2020-11-20_20h22.28.634,test2,2020.2.5,Win32,60,,,0,103,103,103,1
,,,,z,3.454425,,,,,,houses/images/46.jpg,houses/images/211.jpg,105,rajeev,001,2020-11-20_20h22.28.634,test2,2020.2.5,Win32,60,,,0,104,104,104,1
,,,,z,2.866555,,,,,,houses/images/47.jpg,houses/images/282.jpg,106,rajeev,001,2020-11-20_20h22.28.634,test2,2020.2.5,Win32,60,,,0,105,105,105,1
,,,,m,2.333945,,,,,,houses/images/48.jpg,houses/images/145.jpg,107,rajeev,001,2020-11-20_20h22.28.634,test2,2020.2.5,Win32,60,,,0,106,106,106,1
,,,,m,3.950935,,,,,,houses/images/49.jpg,houses/images/135.jpg,108,rajeev,001,2020-11-20_20h22.28.634,test2,2020.2.5,Win32,60,,,0,107,107,107,1
,,,,z,1.61416,,,,,,houses/images/5.jpg,houses/images/59.jpg,109,rajeev,001,2020-11-20_20h22.28.634,test2,2020.2.5,Win32,60,,,0,108,108,108,1
,,,,m,6.331575,,,,,,houses/images/50.jpg,houses/images/164.jpg,110,rajeev,001,2020-11-20_20h22.28.634,test2,2020.2.5,Win32,60,,,0,109,109,109,1
,,,,z,4.0341,,,,,,houses/images/51.jpg,houses/images/42.jpg,111,rajeev,001,2020-11-20_20h22.28.634,test2,2020.2.5,Win32,60,,,0,110,110,110,1
,,,,z,1.841395,,,,,,houses/images/52.jpg,houses/images/32.jpg,112,rajeev,001,2020-11-20_20h22.28.634,test2,2020.2.5,Win32,60,,,0,111,111,111,1
,,,,m,1.2761,,,,,,houses/images/53.jpg,houses/images/357.jpg,113,rajeev,001,2020-11-20_20h22.28.634,test2,2020.2.5,Win32,60,,,0,112,112,112,1
,,,,m,3.694205,,,,,,houses/images/54.jpg,houses/images/305.jpg,114,rajeev,001,2020-11-20_20h22.28.634,test2,2020.2.5,Win32,60,,,0,113,113,113,1
,,,,z,5.60826,,,,,,houses/images/55.jpg,houses/images/352.jpg,115,rajeev,001,2020-11-20_20h22.28.634,test2,2020.2.5,Win32,60,,,0,114,114,114,1
,,,,z,1.33095,,,,,,houses/images/56.jpg,houses/images/273.jpg,116,rajeev,001,2020-11-20_20h22.28.634,test2,2020.2.5,Win32,60,,,0,115,115,115,1
,,,,m,1.3448,,,,,,houses/images/57.jpg,houses/images/143.jpg,117,rajeev,001,2020-11-20_20h22.28.634,test2,2020.2.5,Win32,60,,,0,116,116,116,1
,,,,z,1.142185,,,,,,houses/images/58.jpg,houses/images/95.jpg,118,rajeev,001,2020-11-20_20h22.28.634,test2,2020.2.5,Win32,60,,,0,117,117,117,1
,,,,z,2.658515,,,,,,houses/images/59.jpg,houses/images/244.jpg,119,rajeev,001,2020-11-20_20h22.28.634,test2,2020.2.5,Win32,60,,,0,118,118,118,1
,,,,m,1.17808,,,,,,houses/images/6.jpg,houses/images/202.jpg,120,rajeev,001,2020-11-20_20h22.28.634,test2,2020.2.5,Win32,60,,,0,119,119,119,1
,,,,z,1.235315,,,,,,houses/images/60.jpg,houses/images/203.jpg,121,rajeev,001,2020-11-20_20h22.28.634,test2,2020.2.5,Win32,60,,,0,120,120,120,1
,,,,z,4.27,,,,,,houses/images/61.jpg,houses/images/123.jpg,122,rajeev,001,2020-11-20_20h22.28.634,test2,2020.2.5,Win32,60,,,0,121,121,121,1
,,,,z,2.17479,,,,,,houses/images/62.jpg,houses/images/353.jpg,123,rajeev,001,2020-11-20_20h22.28.634,test2,2020.2.5,Win32,60,,,0,122,122,122,1
,,,,z,2.068315,,,,,,houses/images/63.jpg,houses/images/281.jpg,124,rajeev,001,2020-11-20_20h22.28.634,test2,2020.2.5,Win32,60,,,0,123,123,123,1
,,,,z,1.461875,,,,,,houses/images/64.jpg,houses/images/280.jpg,125,rajeev,001,2020-11-20_20h22.28.634,test2,2020.2.5,Win32,60,,,0,124,124,124,1
,,,,z,2.40956,,,,,,houses/images/65.jpg,houses/images/309.jpg,126,rajeev,001,2020-11-20_20h22.28.634,test2,2020.2.5,Win32,60,,,0,125,125,125,1
,,,,z,2.215725,,,,,,houses/images/66.jpg,houses/images/302.jpg,127,rajeev,001,2020-11-20_20h22.28.634,test2,2020.2.5,Win32,60,,,0,126,126,126,1
,,,,z,1.75472,,,,,,houses/images/67.jpg,houses/images/300.jpg,128,rajeev,001,2020-11-20_20h22.28.634,test2,2020.2.5,Win32,60,,,0,127,127,127,1
,,,,m,1.54971,,,,,,houses/images/68.jpg,houses/images/328.jpg,129,rajeev,001,2020-11-20_20h22.28.634,test2,2020.2.5,Win32,60,,,0,128,128,128,1
,,,,m,2.81273,,,,,,houses/images/69.jpg,houses/images/114.jpg,130,rajeev,001,2020-11-20_20h22.28.634,test2,2020.2.5,Win32,60,,,0,129,129,129,1
,,,,m,2.73194,,,,,,houses/images/7.jpg,houses/images/31.jpg,131,rajeev,001,2020-11-20_20h22.28.634,test2,2020.2.5,Win32,60,,,0,130,130,130,1
,,,,z,2.62892,,,,,,houses/images/70.jpg,houses/images/54.jpg,132,rajeev,001,2020-11-20_20h22.28.634,test2,2020.2.5,Win32,60,,,0,131,131,131,1
,,,,m,3.527705,,,,,,houses/images/71.jpg,houses/images/293.jpg,133,rajeev,001,2020-11-20_20h22.28.634,test2,2020.2.5,Win32,60,,,0,132,132,132,1
,,,,m,1.931615,,,,,,houses/images/72.jpg,houses/images/37.jpg,134,rajeev,001,2020-11-20_20h22.28.634,test2,2020.2.5,Win32,60,,,0,133,133,133,1
,,,,z,10.79625,,,,,,houses/images/73.jpg,houses/images/230.jpg,135,rajeev,001,2020-11-20_20h22.28.634,test2,2020.2.5,Win32,60,,,0,134,134,134,1
,,,,z,3.01752,,,,,,houses/images/74.jpg,houses/images/88.jpg,136,rajeev,001,2020-11-20_20h22.28.634,test2,2020.2.5,Win32,60,,,0,135,135,135,1
,,,,m,2.753545,,,,,,houses/images/75.jpg,houses/images/161.jpg,137,rajeev,001,2020-11-20_20h22.28.634,test2,2020.2.5,Win32,60,,,0,136,136,136,1
,,,,m,5.604725,,,,,,houses/images/76.jpg,houses/images/354.jpg,138,rajeev,001,2020-11-20_20h22.28.634,test2,2020.2.5,Win32,60,,,0,137,137,137,1
,,,,m,1.16899,,,,,,houses/images/77.jpg,houses/images/251.jpg,139,rajeev,001,2020-11-20_20h22.28.634,test2,2020.2.5,Win32,60,,,0,138,138,138,1
,,,,m,4.13241,,,,,,houses/images/78.jpg,houses/images/143.jpg,140,rajeev,001,2020-11-20_20h22.28.634,test2,2020.2.5,Win32,60,,,0,139,139,139,1
,,,,m,1.83219,,,,,,houses/images/79.jpg,houses/images/335.jpg,141,rajeev,001,2020-11-20_20h22.28.634,test2,2020.2.5,Win32,60,,,0,140,140,140,1
,,,,z,6.401415,,,,,,houses/images/8.jpg,houses/images/231.jpg,142,rajeev,001,2020-11-20_20h22.28.634,test2,2020.2.5,Win32,60,,,0,141,141,141,1
,,,,m,1.22651,,,,,,houses/images/80.jpg,houses/images/69.jpg,143,rajeev,001,2020-11-20_20h22.28.634,test2,2020.2.5,Win32,60,,,0,142,142,142,1
,,,,m,4.49753,,,,,,houses/images/81.jpg,houses/images/92.jpg,144,rajeev,001,2020-11-20_20h22.28.634,test2,2020.2.5,Win32,60,,,0,143,143,143,1
,,,,z,1.14554,,,,,,houses/images/82.jpg,houses/images/221.jpg,145,rajeev,001,2020-11-20_20h22.28.634,test2,2020.2.5,Win32,60,,,0,144,144,144,1
,,,,m,1.059715,,,,,,houses/images/83.jpg,houses/images/196.jpg,146,rajeev,001,2020-11-20_20h22.28.634,test2,2020.2.5,Win32,60,,,0,145,145,145,1
,,,,z,4.23167,,,,,,houses/images/84.jpg,houses/images/53.jpg,147,rajeev,001,2020-11-20_20h22.28.634,test2,2020.2.5,Win32,60,,,0,146,146,146,1
,,,,m,1.382855,,,,,,houses/images/85.jpg,houses/images/166.jpg,148,rajeev,001,2020-11-20_20h22.28.634,test2,2020.2.5,Win32,60,,,0,147,147,147,1
,,,,m,2.060495,,,,,,houses/images/86.jpg,houses/images/266.jpg,149,rajeev,001,2020-11-20_20h22.28.634,test2,2020.2.5,Win32,60,,,0,148,148,148,1
,,,,m,2.04805,,,,,,houses/images/87.jpg,houses/images/355.jpg,150,rajeev,001,2020-11-20_20h22.28.634,test2,2020.2.5,Win32,60,,,0,149,149,149,1
,,,,m,1.872425,,,,,,houses/images/88.jpg,houses/images/206.jpg,151,rajeev,001,2020-11-20_20h22.28.634,test2,2020.2.5,Win32,60,,,0,150,150,150,1
,,,,z,5.312645,,,,,,houses/images/89.jpg,houses/images/241.jpg,152,rajeev,001,2020-11-20_20h22.28.634,test2,2020.2.5,Win32,60,,,0,151,151,151,1
,,,,m,1.890105,,,,,,houses/images/9.jpg,houses/images/147.jpg,153,rajeev,001,2020-11-20_20h22.28.634,test2,2020.2.5,Win32,60,,,0,152,152,152,1
,,,,m,1.82794,,,,,,houses/images/90.jpg,houses/images/117.jpg,154,rajeev,001,2020-11-20_20h22.28.634,test2,2020.2.5,Win32,60,,,0,153,153,153,1
,,,,m,1.495765,,,,,,houses/images/91.jpg,houses/images/34.jpg,155,rajeev,001,2020-11-20_20h22.28.634,test2,2020.2.5,Win32,60,,,0,154,154,154,1
,,,,m,1.606195,,,,,,houses/images/92.jpg,houses/images/105.jpg,156,rajeev,001,2020-11-20_20h22.28.634,test2,2020.2.5,Win32,60,,,0,155,155,155,1
,,,,z,1.68846,,,,,,houses/images/93.jpg,houses/images/249.jpg,157,rajeev,001,2020-11-20_20h22.28.634,test2,2020.2.5,Win32,60,,,0,156,156,156,1
,,,,m,5.391385,,,,,,houses/images/94.jpg,houses/images/265.jpg,158,rajeev,001,2020-11-20_20h22.28.634,test2,2020.2.5,Win32,60,,,0,157,157,157,1
,,,,m,1.453395,,,,,,houses/images/95.jpg,houses/images/65.jpg,159,rajeev,001,2020-11-20_20h22.28.634,test2,2020.2.5,Win32,60,,,0,158,158,158,1
,,,,m,6.09071,,,,,,houses/images/96.jpg,houses/images/83.jpg,160,rajeev,001,2020-11-20_20h22.28.634,test2,2020.2.5,Win32,60,,,0,159,159,159,1
,,,,m,2.18377,,,,,,houses/images/97.jpg,houses/images/165.jpg,161,rajeev,001,2020-11-20_20h22.28.634,test2,2020.2.5,Win32,60,,,0,160,160,160,1
,,,,z,1.40736,,,,,,houses/images/98.jpg,houses/images/280.jpg,162,rajeev,001,2020-11-20_20h22.28.634,test2,2020.2.5,Win32,60,,,0,161,161,161,1
,,,,m,1.42675,,,,,,houses/images/199.jpg,houses/images/278.jpg,163,rajeev,001,2020-11-20_20h22.28.634,test2,2020.2.5,Win32,60,,,0,162,162,162,1
,,,,z,2.170625,,,,,,houses/images/0.jpg,houses/images/297.jpg,164,rajeev,001,2020-11-20_20h22.28.634,test2,2020.2.5,Win32,60,,,0,163,163,163,1
,,,,z,8.89579,,,,,,houses/images/1.jpg,houses/images/225.jpg,165,rajeev,001,2020-11-20_20h22.28.634,test2,2020.2.5,Win32,60,,,0,164,164,164,1
,,,,m,1.886675,,,,,,houses/images/10.jpg,houses/images/41.jpg,166,rajeev,001,2020-11-20_20h22.28.634,test2,2020.2.5,Win32,60,,,0,165,165,165,1
,,,,z,2.903035,,,,,,houses/images/100.jpg,houses/images/19.jpg,167,rajeev,001,2020-11-20_20h22.28.634,test2,2020.2.5,Win32,60,,,0,166,166,166,1
,,,,m,1.52444,,,,,,houses/images/101.jpg,houses/images/189.jpg,168,rajeev,001,2020-11-20_20h22.28.634,test2,2020.2.5,Win32,60,,,0,167,167,167,1
,,,,m,3.514135,,,,,,houses/images/102.jpg,houses/images/141.jpg,169,rajeev,001,2020-11-20_20h22.28.634,test2,2020.2.5,Win32,60,,,0,168,168,168,1
,,,,m,1.307915,,,,,,houses/images/103.jpg,houses/images/212.jpg,170,rajeev,001,2020-11-20_20h22.28.634,test2,2020.2.5,Win32,60,,,0,169,169,169,1
,,,,m,1.03399,,,,,,houses/images/104.jpg,houses/images/134.jpg,171,rajeev,001,2020-11-20_20h22.28.634,test2,2020.2.5,Win32,60,,,0,170,170,170,1
,,,,z,1.62349,,,,,,houses/images/105.jpg,houses/images/13.jpg,172,rajeev,001,2020-11-20_20h22.28.634,test2,2020.2.5,Win32,60,,,0,171,171,171,1
,,,,z,8.805365,,,,,,houses/images/106.jpg,houses/images/258.jpg,173,rajeev,001,2020-11-20_20h22.28.634,test2,2020.2.5,Win32,60,,,0,172,172,172,1
,,,,m,4.074055,,,,,,houses/images/107.jpg,houses/images/14.jpg,174,rajeev,001,2020-11-20_20h22.28.634,test2,2020.2.5,Win32,60,,,0,173,173,173,1
,,,,m,2.461755,,,,,,houses/images/108.jpg,houses/images/9.jpg,175,rajeev,001,2020-11-20_20h22.28.634,test2,2020.2.5,Win32,60,,,0,174,174,174,1
,,,,m,1.97782,,,,,,houses/images/109.jpg,houses/images/106.jpg,176,rajeev,001,2020-11-20_20h22.28.634,test2,2020.2.5,Win32,60,,,0,175,175,175,1
,,,,m,2.391095,,,,,,houses/images/11.jpg,houses/images/268.jpg,177,rajeev,001,2020-11-20_20h22.28.634,test2,2020.2.5,Win32,60,,,0,176,176,176,1
,,,,z,1.684515,,,,,,houses/images/210.jpg,houses/images/330.jpg,178,rajeev,001,2020-11-20_20h22.28.634,test2,2020.2.5,Win32,60,,,0,177,177,177,1
,,,,m,1.67091,,,,,,houses/images/111.jpg,houses/images/343.jpg,179,rajeev,001,2020-11-20_20h22.28.634,test2,2020.2.5,Win32,60,,,0,178,178,178,1
,,,,m,3.926975,,,,,,houses/images/112.jpg,houses/images/225.jpg,180,rajeev,001,2020-11-20_20h22.28.634,test2,2020.2.5,Win32,60,,,0,179,179,179,1
,,,,m,1.56277,,,,,,houses/images/113.jpg,houses/images/174.jpg,181,rajeev,001,2020-11-20_20h22.28.634,test2,2020.2.5,Win32,60,,,0,180,180,180,1
,,,,z,2.299865,,,,,,houses/images/114.jpg,houses/images/25.jpg,182,rajeev,001,2020-11-20_20h22.28.634,test2,2020.2.5,Win32,60,,,0,181,181,181,1
,,,,z,1.162015,,,,,,houses/images/115.jpg,houses/images/100.jpg,183,rajeev,001,2020-11-20_20h22.28.634,test2,2020.2.5,Win32,60,,,0,182,182,182,1
,,,,m,2.28305,,,,,,houses/images/116.jpg,houses/images/48.jpg,184,rajeev,001,2020-11-20_20h22.28.634,test2,2020.2.5,Win32,60,,,0,183,183,183,1
,,,,m,3.091285,,,,,,houses/images/117.jpg,houses/images/296.jpg,185,rajeev,001,2020-11-20_20h22.28.634,test2,2020.2.5,Win32,60,,,0,184,184,184,1
,,,,z,5.5793,,,,,,houses/images/118.jpg,houses/images/15.jpg,186,rajeev,001,2020-11-20_20h22.28.634,test2,2020.2.5,Win32,60,,,0,185,185,185,1
,,,,m,1.95275,,,,,,houses/images/119.jpg,houses/images/252.jpg,187,rajeev,001,2020-11-20_20h22.28.634,test2,2020.2.5,Win32,60,,,0,186,186,186,1
,,,,m,1.837135,,,,,,houses/images/12.jpg,houses/images/290.jpg,188,rajeev,001,2020-11-20_20h22.28.634,test2,2020.2.5,Win32,60,,,0,187,187,187,1
,,,,m,2.98961,,,,,,houses/images/120.jpg,houses/images/236.jpg,189,rajeev,001,2020-11-20_20h22.28.634,test2,2020.2.5,Win32,60,,,0,188,188,188,1
,,,,m,2.2692,,,,,,houses/images/121.jpg,houses/images/260.jpg,190,rajeev,001,2020-11-20_20h22.28.634,test2,2020.2.5,Win32,60,,,0,189,189,189,1
,,,,m,1.689415,,,,,,houses/images/122.jpg,houses/images/56.jpg,191,rajeev,001,2020-11-20_20h22.28.634,test2,2020.2.5,Win32,60,,,0,190,190,190,1
,,,,m,2.043545,,,,,,houses/images/123.jpg,houses/images/336.jpg,192,rajeev,001,2020-11-20_20h22.28.634,test2,2020.2.5,Win32,60,,,0,191,191,191,1
,,,,m,2.42856,,,,,,houses/images/124.jpg,houses/images/39.jpg,193,rajeev,001,2020-11-20_20h22.28.634,test2,2020.2.5,Win32,60,,,0,192,192,192,1
,,,,z,3.091755,,,,,,houses/images/225.jpg,houses/images/302.jpg,194,rajeev,001,2020-11-20_20h22.28.634,test2,2020.2.5,Win32,60,,,0,193,193,193,1
,,,,z,2.126955,,,,,,houses/images/226.jpg,houses/images/207.jpg,195,rajeev,001,2020-11-20_20h22.28.634,test2,2020.2.5,Win32,60,,,0,194,194,194,1
,,,,m,2.03873,,,,,,houses/images/127.jpg,houses/images/348.jpg,196,rajeev,001,2020-11-20_20h22.28.634,test2,2020.2.5,Win32,60,,,0,195,195,195,1
,,,,z,1.312685,,,,,,houses/images/128.jpg,houses/images/151.jpg,197,rajeev,001,2020-11-20_20h22.28.634,test2,2020.2.5,Win32,60,,,0,196,196,196,1
,,,,z,2.273495,,,,,,houses/images/129.jpg,houses/images/315.jpg,198,rajeev,001,2020-11-20_20h22.28.634,test2,2020.2.5,Win32,60,,,0,197,197,197,1
,,,,m,1.50026,,,,,,houses/images/13.jpg,houses/images/63.jpg,199,rajeev,001,2020-11-20_20h22.28.634,test2,2020.2.5,Win32,60,,,0,198,198,198,1
,,,,z,1.18075,,,,,,houses/images/307.jpg,houses/images/172.jpg,200,rajeev,001,2020-11-20_20h22.28.634,test2,2020.2.5,Win32,60,,,0,199,199,199,1
