key_resp.keys,key_resp.rt,key_resp_3.keys,key_resp_3.rt,key_resp_2.keys,key_resp_2.rt,trials.thisRepN,trials.thisTrialN,trials.thisN,trials.thisIndex,trials.ran,image_left,image_right,trial_num,participant,session,date,expName,psychopyVersion,OS,frameRate,key_resp_4.keys,key_resp_4.rt,trials_2.thisRepN,trials_2.thisTrialN,trials_2.thisN,trials_2.thisIndex,trials_2.ran
space,1.367565,space,2.566065,z,4.991625,0,0,0,0,1,houses/images/0.jpg,houses/images/349.jpg,1,Reighlyn,001,2020-11-20_14h58.20.531,test2,2020.2.5,MacIntel,60,,,,,,,
,,,,m,4.160715,0,1,1,1,1,houses/images/1.jpg,houses/images/194.jpg,2,Reighlyn,001,2020-11-20_14h58.20.531,test2,2020.2.5,MacIntel,60,,,,,,,
,,,,z,1.648975,0,2,2,2,1,houses/images/10.jpg,houses/images/159.jpg,3,Reighlyn,001,2020-11-20_14h58.20.531,test2,2020.2.5,MacIntel,60,,,,,,,
,,,,z,1.76131,0,3,3,3,1,houses/images/100.jpg,houses/images/42.jpg,4,Reighlyn,001,2020-11-20_14h58.20.531,test2,2020.2.5,MacIntel,60,,,,,,,
,,,,m,3.32623,0,4,4,4,1,houses/images/101.jpg,houses/images/240.jpg,5,Reighlyn,001,2020-11-20_14h58.20.531,test2,2020.2.5,MacIntel,60,,,,,,,
,,,,m,1.66395,0,5,5,5,1,houses/images/102.jpg,houses/images/201.jpg,6,Reighlyn,001,2020-11-20_14h58.20.531,test2,2020.2.5,MacIntel,60,,,,,,,
,,,,z,1.540065,0,6,6,6,1,houses/images/103.jpg,houses/images/223.jpg,7,Reighlyn,001,2020-11-20_14h58.20.531,test2,2020.2.5,MacIntel,60,,,,,,,
,,,,z,6.21371,0,7,7,7,1,houses/images/104.jpg,houses/images/46.jpg,8,Reighlyn,001,2020-11-20_14h58.20.531,test2,2020.2.5,MacIntel,60,,,,,,,
,,,,m,3.018835,0,8,8,8,1,houses/images/105.jpg,houses/images/109.jpg,9,Reighlyn,001,2020-11-20_14h58.20.531,test2,2020.2.5,MacIntel,60,,,,,,,
,,,,z,1.334805,0,9,9,9,1,houses/images/106.jpg,houses/images/12.jpg,10,Reighlyn,001,2020-11-20_14h58.20.531,test2,2020.2.5,MacIntel,60,,,,,,,
,,,,z,1.053045,0,10,10,10,1,houses/images/107.jpg,houses/images/358.jpg,11,Reighlyn,001,2020-11-20_14h58.20.531,test2,2020.2.5,MacIntel,60,,,,,,,
,,,,z,2.764585,0,11,11,11,1,houses/images/108.jpg,houses/images/197.jpg,12,Reighlyn,001,2020-11-20_14h58.20.531,test2,2020.2.5,MacIntel,60,,,,,,,
,,,,z,1.27621,0,12,12,12,1,houses/images/109.jpg,houses/images/133.jpg,13,Reighlyn,001,2020-11-20_14h58.20.531,test2,2020.2.5,MacIntel,60,,,,,,,
,,,,z,1.610345,0,13,13,13,1,houses/images/11.jpg,houses/images/286.jpg,14,Reighlyn,001,2020-11-20_14h58.20.531,test2,2020.2.5,MacIntel,60,,,,,,,
,,,,z,1.365735,0,14,14,14,1,houses/images/210.jpg,houses/images/33.jpg,15,Reighlyn,001,2020-11-20_14h58.20.531,test2,2020.2.5,MacIntel,60,,,,,,,
,,,,z,1.31051,0,15,15,15,1,houses/images/111.jpg,houses/images/156.jpg,16,Reighlyn,001,2020-11-20_14h58.20.531,test2,2020.2.5,MacIntel,60,,,,,,,
,,,,z,1.818155,0,16,16,16,1,houses/images/112.jpg,houses/images/128.jpg,17,Reighlyn,001,2020-11-20_14h58.20.531,test2,2020.2.5,MacIntel,60,,,,,,,
,,,,m,1.29717,0,17,17,17,1,houses/images/113.jpg,houses/images/306.jpg,18,Reighlyn,001,2020-11-20_14h58.20.531,test2,2020.2.5,MacIntel,60,,,,,,,
,,,,z,4.17551,0,18,18,18,1,houses/images/114.jpg,houses/images/272.jpg,19,Reighlyn,001,2020-11-20_14h58.20.531,test2,2020.2.5,MacIntel,60,,,,,,,
,,,,z,3.6192,0,19,19,19,1,houses/images/115.jpg,houses/images/112.jpg,20,Reighlyn,001,2020-11-20_14h58.20.531,test2,2020.2.5,MacIntel,60,,,,,,,
,,,,z,4.30034,0,20,20,20,1,houses/images/116.jpg,houses/images/101.jpg,21,Reighlyn,001,2020-11-20_14h58.20.531,test2,2020.2.5,MacIntel,60,,,,,,,
,,,,m,2.033985,0,21,21,21,1,houses/images/117.jpg,houses/images/298.jpg,22,Reighlyn,001,2020-11-20_14h58.20.531,test2,2020.2.5,MacIntel,60,,,,,,,
,,,,z,1.62605,0,22,22,22,1,houses/images/118.jpg,houses/images/80.jpg,23,Reighlyn,001,2020-11-20_14h58.20.531,test2,2020.2.5,MacIntel,60,,,,,,,
,,,,m,1.36513,0,23,23,23,1,houses/images/119.jpg,houses/images/329.jpg,24,Reighlyn,001,2020-11-20_14h58.20.531,test2,2020.2.5,MacIntel,60,,,,,,,
,,,,z,2.858735,0,24,24,24,1,houses/images/12.jpg,houses/images/320.jpg,25,Reighlyn,001,2020-11-20_14h58.20.531,test2,2020.2.5,MacIntel,60,,,,,,,
,,,,z,2.96129,0,25,25,25,1,houses/images/120.jpg,houses/images/24.jpg,26,Reighlyn,001,2020-11-20_14h58.20.531,test2,2020.2.5,MacIntel,60,,,,,,,
,,,,m,4.109715,0,26,26,26,1,houses/images/121.jpg,houses/images/341.jpg,27,Reighlyn,001,2020-11-20_14h58.20.531,test2,2020.2.5,MacIntel,60,,,,,,,
,,,,m,2.231065,0,27,27,27,1,houses/images/122.jpg,houses/images/38.jpg,28,Reighlyn,001,2020-11-20_14h58.20.531,test2,2020.2.5,MacIntel,60,,,,,,,
,,,,z,1.949655,0,28,28,28,1,houses/images/123.jpg,houses/images/98.jpg,29,Reighlyn,001,2020-11-20_14h58.20.531,test2,2020.2.5,MacIntel,60,,,,,,,
,,,,z,1.525995,0,29,29,29,1,houses/images/124.jpg,houses/images/213.jpg,30,Reighlyn,001,2020-11-20_14h58.20.531,test2,2020.2.5,MacIntel,60,,,,,,,
,,,,z,1.246175,0,30,30,30,1,houses/images/225.jpg,houses/images/208.jpg,31,Reighlyn,001,2020-11-20_14h58.20.531,test2,2020.2.5,MacIntel,60,,,,,,,
,,,,z,2.05118,0,31,31,31,1,houses/images/226.jpg,houses/images/210.jpg,32,Reighlyn,001,2020-11-20_14h58.20.531,test2,2020.2.5,MacIntel,60,,,,,,,
,,,,z,2.38515,0,32,32,32,1,houses/images/127.jpg,houses/images/90.jpg,33,Reighlyn,001,2020-11-20_14h58.20.531,test2,2020.2.5,MacIntel,60,,,,,,,
,,,,z,2.244545,0,33,33,33,1,houses/images/128.jpg,houses/images/113.jpg,34,Reighlyn,001,2020-11-20_14h58.20.531,test2,2020.2.5,MacIntel,60,,,,,,,
,,,,z,2.36629,0,34,34,34,1,houses/images/129.jpg,houses/images/232.jpg,35,Reighlyn,001,2020-11-20_14h58.20.531,test2,2020.2.5,MacIntel,60,,,,,,,
,,,,z,1.84114,0,35,35,35,1,houses/images/13.jpg,houses/images/359.jpg,36,Reighlyn,001,2020-11-20_14h58.20.531,test2,2020.2.5,MacIntel,60,,,,,,,
,,,,m,2.08396,0,36,36,36,1,houses/images/130.jpg,houses/images/187.jpg,37,Reighlyn,001,2020-11-20_14h58.20.531,test2,2020.2.5,MacIntel,60,,,,,,,
,,,,z,3.543565,0,37,37,37,1,houses/images/131.jpg,houses/images/275.jpg,38,Reighlyn,001,2020-11-20_14h58.20.531,test2,2020.2.5,MacIntel,60,,,,,,,
,,,,z,1.217855,0,38,38,38,1,houses/images/132.jpg,houses/images/162.jpg,39,Reighlyn,001,2020-11-20_14h58.20.531,test2,2020.2.5,MacIntel,60,,,,,,,
,,,,m,1.45237,0,39,39,39,1,houses/images/133.jpg,houses/images/311.jpg,40,Reighlyn,001,2020-11-20_14h58.20.531,test2,2020.2.5,MacIntel,60,,,,,,,
,,,,z,3.158675,0,40,40,40,1,houses/images/134.jpg,houses/images/277.jpg,41,Reighlyn,001,2020-11-20_14h58.20.531,test2,2020.2.5,MacIntel,60,,,,,,,
,,,,z,2.117425,0,41,41,41,1,houses/images/135.jpg,houses/images/71.jpg,42,Reighlyn,001,2020-11-20_14h58.20.531,test2,2020.2.5,MacIntel,60,,,,,,,
,,,,z,2.325225,0,42,42,42,1,houses/images/236.jpg,houses/images/72.jpg,43,Reighlyn,001,2020-11-20_14h58.20.531,test2,2020.2.5,MacIntel,60,,,,,,,
,,,,m,2.75932,0,43,43,43,1,houses/images/137.jpg,houses/images/246.jpg,44,Reighlyn,001,2020-11-20_14h58.20.531,test2,2020.2.5,MacIntel,60,,,,,,,
,,,,z,1.634895,0,44,44,44,1,houses/images/138.jpg,houses/images/174.jpg,45,Reighlyn,001,2020-11-20_14h58.20.531,test2,2020.2.5,MacIntel,60,,,,,,,
,,,,m,1.499945,0,45,45,45,1,houses/images/239.jpg,houses/images/292.jpg,46,Reighlyn,001,2020-11-20_14h58.20.531,test2,2020.2.5,MacIntel,60,,,,,,,
,,,,m,3.717675,0,46,46,46,1,houses/images/14.jpg,houses/images/194.jpg,47,Reighlyn,001,2020-11-20_14h58.20.531,test2,2020.2.5,MacIntel,60,,,,,,,
,,,,m,1.30162,0,47,47,47,1,houses/images/240.jpg,houses/images/180.jpg,48,Reighlyn,001,2020-11-20_14h58.20.531,test2,2020.2.5,MacIntel,60,,,,,,,
,,,,z,5.194855,0,48,48,48,1,houses/images/141.jpg,houses/images/262.jpg,49,Reighlyn,001,2020-11-20_14h58.20.531,test2,2020.2.5,MacIntel,60,,,,,,,
,,,,z,3.757895,0,49,49,49,1,houses/images/42.jpg,houses/images/118.jpg,50,Reighlyn,001,2020-11-20_14h58.20.531,test2,2020.2.5,MacIntel,60,,,,,,,
,,,,z,2.69341,0,50,50,50,1,houses/images/143.jpg,houses/images/316.jpg,51,Reighlyn,001,2020-11-20_14h58.20.531,test2,2020.2.5,MacIntel,60,,,,,,,
,,,,m,0.91124,0,51,51,51,1,houses/images/144.jpg,houses/images/29.jpg,52,Reighlyn,001,2020-11-20_14h58.20.531,test2,2020.2.5,MacIntel,60,,,,,,,
,,,,m,2.793365,0,52,52,52,1,houses/images/145.jpg,houses/images/146.jpg,53,Reighlyn,001,2020-11-20_14h58.20.531,test2,2020.2.5,MacIntel,60,,,,,,,
,,,,z,2.743565,0,53,53,53,1,houses/images/146.jpg,houses/images/342.jpg,54,Reighlyn,001,2020-11-20_14h58.20.531,test2,2020.2.5,MacIntel,60,,,,,,,
,,,,z,1.62992,0,54,54,54,1,houses/images/147.jpg,houses/images/120.jpg,55,Reighlyn,001,2020-11-20_14h58.20.531,test2,2020.2.5,MacIntel,60,,,,,,,
,,,,m,2.292035,0,55,55,55,1,houses/images/148.jpg,houses/images/204.jpg,56,Reighlyn,001,2020-11-20_14h58.20.531,test2,2020.2.5,MacIntel,60,,,,,,,
,,,,m,1.40539,0,56,56,56,1,houses/images/149.jpg,houses/images/292.jpg,57,Reighlyn,001,2020-11-20_14h58.20.531,test2,2020.2.5,MacIntel,60,,,,,,,
,,,,m,2.8178,0,57,57,57,1,houses/images/15.jpg,houses/images/191.jpg,58,Reighlyn,001,2020-11-20_14h58.20.531,test2,2020.2.5,MacIntel,60,,,,,,,
,,,,m,2.14021,0,58,58,58,1,houses/images/150.jpg,houses/images/318.jpg,59,Reighlyn,001,2020-11-20_14h58.20.531,test2,2020.2.5,MacIntel,60,,,,,,,
,,,,m,1.71143,0,59,59,59,1,houses/images/151.jpg,houses/images/255.jpg,60,Reighlyn,001,2020-11-20_14h58.20.531,test2,2020.2.5,MacIntel,60,,,,,,,
,,,,z,1.2662,0,60,60,60,1,houses/images/152.jpg,houses/images/261.jpg,61,Reighlyn,001,2020-11-20_14h58.20.531,test2,2020.2.5,MacIntel,60,,,,,,,
,,,,m,1.57021,0,61,61,61,1,houses/images/253.jpg,houses/images/129.jpg,62,Reighlyn,001,2020-11-20_14h58.20.531,test2,2020.2.5,MacIntel,60,,,,,,,
,,,,z,3.699365,0,62,62,62,1,houses/images/154.jpg,houses/images/36.jpg,63,Reighlyn,001,2020-11-20_14h58.20.531,test2,2020.2.5,MacIntel,60,,,,,,,
,,,,m,0.78405,0,63,63,63,1,houses/images/155.jpg,houses/images/210.jpg,64,Reighlyn,001,2020-11-20_14h58.20.531,test2,2020.2.5,MacIntel,60,,,,,,,
,,,,m,0.984095,0,64,64,64,1,houses/images/156.jpg,houses/images/132.jpg,65,Reighlyn,001,2020-11-20_14h58.20.531,test2,2020.2.5,MacIntel,60,,,,,,,
,,,,m,2.401645,0,65,65,65,1,houses/images/157.jpg,houses/images/70.jpg,66,Reighlyn,001,2020-11-20_14h58.20.531,test2,2020.2.5,MacIntel,60,,,,,,,
,,,,z,1.92516,0,66,66,66,1,houses/images/158.jpg,houses/images/199.jpg,67,Reighlyn,001,2020-11-20_14h58.20.531,test2,2020.2.5,MacIntel,60,,,,,,,
,,,,m,1.25072,0,67,67,67,1,houses/images/159.jpg,houses/images/226.jpg,68,Reighlyn,001,2020-11-20_14h58.20.531,test2,2020.2.5,MacIntel,60,,,,,,,
,,,,m,1.2088,0,68,68,68,1,houses/images/16.jpg,houses/images/50.jpg,69,Reighlyn,001,2020-11-20_14h58.20.531,test2,2020.2.5,MacIntel,60,,,,,,,
,,,,z,2.771335,0,69,69,69,1,houses/images/160.jpg,houses/images/239.jpg,70,Reighlyn,001,2020-11-20_14h58.20.531,test2,2020.2.5,MacIntel,60,,,,,,,
,,,,z,1.211495,0,70,70,70,1,houses/images/161.jpg,houses/images/289.jpg,71,Reighlyn,001,2020-11-20_14h58.20.531,test2,2020.2.5,MacIntel,60,,,,,,,
,,,,m,1.751185,0,71,71,71,1,houses/images/162.jpg,houses/images/325.jpg,72,Reighlyn,001,2020-11-20_14h58.20.531,test2,2020.2.5,MacIntel,60,,,,,,,
,,,,z,1.090855,0,72,72,72,1,houses/images/163.jpg,houses/images/259.jpg,73,Reighlyn,001,2020-11-20_14h58.20.531,test2,2020.2.5,MacIntel,60,,,,,,,
,,,,m,1.225905,0,73,73,73,1,houses/images/164.jpg,houses/images/316.jpg,74,Reighlyn,001,2020-11-20_14h58.20.531,test2,2020.2.5,MacIntel,60,,,,,,,
,,,,m,1.24179,0,74,74,74,1,houses/images/165.jpg,houses/images/311.jpg,75,Reighlyn,001,2020-11-20_14h58.20.531,test2,2020.2.5,MacIntel,60,,,,,,,
,,,,z,2.49207,0,75,75,75,1,houses/images/166.jpg,houses/images/246.jpg,76,Reighlyn,001,2020-11-20_14h58.20.531,test2,2020.2.5,MacIntel,60,,,,,,,
,,,,m,1.1011,0,76,76,76,1,houses/images/167.jpg,houses/images/269.jpg,77,Reighlyn,001,2020-11-20_14h58.20.531,test2,2020.2.5,MacIntel,60,,,,,,,
,,,,m,2.058065,0,77,77,77,1,houses/images/168.jpg,houses/images/360.jpg,78,Reighlyn,001,2020-11-20_14h58.20.531,test2,2020.2.5,MacIntel,60,,,,,,,
,,,,m,1.383945,0,78,78,78,1,houses/images/169.jpg,houses/images/116.jpg,79,Reighlyn,001,2020-11-20_14h58.20.531,test2,2020.2.5,MacIntel,60,,,,,,,
,,,,m,2.80206,0,79,79,79,1,houses/images/17.jpg,houses/images/245.jpg,80,Reighlyn,001,2020-11-20_14h58.20.531,test2,2020.2.5,MacIntel,60,,,,,,,
,,,,m,1.18186,0,80,80,80,1,houses/images/170.jpg,houses/images/152.jpg,81,Reighlyn,001,2020-11-20_14h58.20.531,test2,2020.2.5,MacIntel,60,,,,,,,
,,,,z,2.041475,0,81,81,81,1,houses/images/171.jpg,houses/images/77.jpg,82,Reighlyn,001,2020-11-20_14h58.20.531,test2,2020.2.5,MacIntel,60,,,,,,,
,,,,z,1.79648,0,82,82,82,1,houses/images/172.jpg,houses/images/154.jpg,83,Reighlyn,001,2020-11-20_14h58.20.531,test2,2020.2.5,MacIntel,60,,,,,,,
,,,,m,1.46999,0,83,83,83,1,houses/images/273.jpg,houses/images/210.jpg,84,Reighlyn,001,2020-11-20_14h58.20.531,test2,2020.2.5,MacIntel,60,,,,,,,
,,,,z,3.21553,0,84,84,84,1,houses/images/174.jpg,houses/images/121.jpg,85,Reighlyn,001,2020-11-20_14h58.20.531,test2,2020.2.5,MacIntel,60,,,,,,,
,,,,z,1.57239,0,85,85,85,1,houses/images/175.jpg,houses/images/47.jpg,86,Reighlyn,001,2020-11-20_14h58.20.531,test2,2020.2.5,MacIntel,60,,,,,,,
,,,,m,2.807545,0,86,86,86,1,houses/images/176.jpg,houses/images/328.jpg,87,Reighlyn,001,2020-11-20_14h58.20.531,test2,2020.2.5,MacIntel,60,,,,,,,
,,,,m,1.451945,0,87,87,87,1,houses/images/177.jpg,houses/images/35.jpg,88,Reighlyn,001,2020-11-20_14h58.20.531,test2,2020.2.5,MacIntel,60,,,,,,,
,,,,m,1.96934,0,88,88,88,1,houses/images/178.jpg,houses/images/299.jpg,89,Reighlyn,001,2020-11-20_14h58.20.531,test2,2020.2.5,MacIntel,60,,,,,,,
,,,,m,1.218995,0,89,89,89,1,houses/images/179.jpg,houses/images/283.jpg,90,Reighlyn,001,2020-11-20_14h58.20.531,test2,2020.2.5,MacIntel,60,,,,,,,
,,,,z,2.06757,0,90,90,90,1,houses/images/18.jpg,houses/images/182.jpg,91,Reighlyn,001,2020-11-20_14h58.20.531,test2,2020.2.5,MacIntel,60,,,,,,,
,,,,z,1.08207,0,91,91,91,1,houses/images/180.jpg,houses/images/327.jpg,92,Reighlyn,001,2020-11-20_14h58.20.531,test2,2020.2.5,MacIntel,60,,,,,,,
,,,,z,1.518805,0,92,92,92,1,houses/images/281.jpg,houses/images/334.jpg,93,Reighlyn,001,2020-11-20_14h58.20.531,test2,2020.2.5,MacIntel,60,,,,,,,
,,,,m,4.24181,0,93,93,93,1,houses/images/182.jpg,houses/images/75.jpg,94,Reighlyn,001,2020-11-20_14h58.20.531,test2,2020.2.5,MacIntel,60,,,,,,,
,,,,z,1.518385,0,94,94,94,1,houses/images/183.jpg,houses/images/137.jpg,95,Reighlyn,001,2020-11-20_14h58.20.531,test2,2020.2.5,MacIntel,60,,,,,,,
,,,,m,1.36646,0,95,95,95,1,houses/images/184.jpg,houses/images/344.jpg,96,Reighlyn,001,2020-11-20_14h58.20.531,test2,2020.2.5,MacIntel,60,,,,,,,
,,,,z,1.59768,0,96,96,96,1,houses/images/185.jpg,houses/images/285.jpg,97,Reighlyn,001,2020-11-20_14h58.20.531,test2,2020.2.5,MacIntel,60,,,,,,,
,,,,m,1.12208,0,97,97,97,1,houses/images/186.jpg,houses/images/230.jpg,98,Reighlyn,001,2020-11-20_14h58.20.531,test2,2020.2.5,MacIntel,60,,,,,,,
,,,,m,2.29253,0,98,98,98,1,houses/images/187.jpg,houses/images/3.jpg,99,Reighlyn,001,2020-11-20_14h58.20.531,test2,2020.2.5,MacIntel,60,,,,,,,
,,,,m,1.4685,0,99,99,99,1,houses/images/188.jpg,houses/images/304.jpg,100,Reighlyn,001,2020-11-20_14h58.20.531,test2,2020.2.5,MacIntel,60,,,,,,,
,,,,m,3.732575,0,100,100,100,1,houses/images/189.jpg,houses/images/17.jpg,101,Reighlyn,001,2020-11-20_14h58.20.531,test2,2020.2.5,MacIntel,60,,,,,,,
,,,,m,1.081895,0,101,101,101,1,houses/images/19.jpg,houses/images/351.jpg,102,Reighlyn,001,2020-11-20_14h58.20.531,test2,2020.2.5,MacIntel,60,,,,,,,
,,,,m,0.985345,0,102,102,102,1,houses/images/190.jpg,houses/images/307.jpg,103,Reighlyn,001,2020-11-20_14h58.20.531,test2,2020.2.5,MacIntel,60,,,,,,,
,,,,m,1.92622,0,103,103,103,1,houses/images/191.jpg,houses/images/326.jpg,104,Reighlyn,001,2020-11-20_14h58.20.531,test2,2020.2.5,MacIntel,60,,,,,,,
,,,,z,1.13541,0,104,104,104,1,houses/images/292.jpg,houses/images/240.jpg,105,Reighlyn,001,2020-11-20_14h58.20.531,test2,2020.2.5,MacIntel,60,,,,,,,
,,,,m,2.023745,0,105,105,105,1,houses/images/193.jpg,houses/images/243.jpg,106,Reighlyn,001,2020-11-20_14h58.20.531,test2,2020.2.5,MacIntel,60,,,,,,,
,,,,z,1.85033,0,106,106,106,1,houses/images/194.jpg,houses/images/291.jpg,107,Reighlyn,001,2020-11-20_14h58.20.531,test2,2020.2.5,MacIntel,60,,,,,,,
,,,,z,2.166365,0,107,107,107,1,houses/images/195.jpg,houses/images/361.jpg,108,Reighlyn,001,2020-11-20_14h58.20.531,test2,2020.2.5,MacIntel,60,,,,,,,
,,,,m,1.43251,0,108,108,108,1,houses/images/196.jpg,houses/images/30.jpg,109,Reighlyn,001,2020-11-20_14h58.20.531,test2,2020.2.5,MacIntel,60,,,,,,,
,,,,z,1.59605,0,109,109,109,1,houses/images/197.jpg,houses/images/22.jpg,110,Reighlyn,001,2020-11-20_14h58.20.531,test2,2020.2.5,MacIntel,60,,,,,,,
,,,,z,1.27461,0,110,110,110,1,houses/images/198.jpg,houses/images/250.jpg,111,Reighlyn,001,2020-11-20_14h58.20.531,test2,2020.2.5,MacIntel,60,,,,,,,
,,,,m,1.843125,0,111,111,111,1,houses/images/199.jpg,houses/images/323.jpg,112,Reighlyn,001,2020-11-20_14h58.20.531,test2,2020.2.5,MacIntel,60,,,,,,,
,,,,z,1.71921,0,112,112,112,1,houses/images/2.jpg,houses/images/187.jpg,113,Reighlyn,001,2020-11-20_14h58.20.531,test2,2020.2.5,MacIntel,60,,,,,,,
,,,,m,2.330695,0,113,113,113,1,houses/images/20.jpg,houses/images/100.jpg,114,Reighlyn,001,2020-11-20_14h58.20.531,test2,2020.2.5,MacIntel,60,,,,,,,
,,,,z,1.70007,0,114,114,114,1,houses/images/200.jpg,houses/images/238.jpg,115,Reighlyn,001,2020-11-20_14h58.20.531,test2,2020.2.5,MacIntel,60,,,,,,,
,,,,z,2.29864,0,115,115,115,1,houses/images/201.jpg,houses/images/58.jpg,116,Reighlyn,001,2020-11-20_14h58.20.531,test2,2020.2.5,MacIntel,60,,,,,,,
,,,,z,2.12042,0,116,116,116,1,houses/images/202.jpg,houses/images/205.jpg,117,Reighlyn,001,2020-11-20_14h58.20.531,test2,2020.2.5,MacIntel,60,,,,,,,
,,,,z,1.551545,0,117,117,117,1,houses/images/203.jpg,houses/images/40.jpg,118,Reighlyn,001,2020-11-20_14h58.20.531,test2,2020.2.5,MacIntel,60,,,,,,,
,,,,m,2.3644,0,118,118,118,1,houses/images/204.jpg,houses/images/64.jpg,119,Reighlyn,001,2020-11-20_14h58.20.531,test2,2020.2.5,MacIntel,60,,,,,,,
,,,,z,1.093195,0,119,119,119,1,houses/images/205.jpg,houses/images/155.jpg,120,Reighlyn,001,2020-11-20_14h58.20.531,test2,2020.2.5,MacIntel,60,,,,,,,
,,,,z,1.581015,0,120,120,120,1,houses/images/206.jpg,houses/images/199.jpg,121,Reighlyn,001,2020-11-20_14h58.20.531,test2,2020.2.5,MacIntel,60,,,,,,,
,,,,m,20.615635,0,121,121,121,1,houses/images/207.jpg,houses/images/233.jpg,122,Reighlyn,001,2020-11-20_14h58.20.531,test2,2020.2.5,MacIntel,60,,,,,,,
,,,,m,3.16881,0,122,122,122,1,houses/images/208.jpg,houses/images/8.jpg,123,Reighlyn,001,2020-11-20_14h58.20.531,test2,2020.2.5,MacIntel,60,,,,,,,
,,,,z,0.93388,0,123,123,123,1,houses/images/209.jpg,houses/images/167.jpg,124,Reighlyn,001,2020-11-20_14h58.20.531,test2,2020.2.5,MacIntel,60,,,,,,,
,,,,m,1.210165,0,124,124,124,1,houses/images/21.jpg,houses/images/103.jpg,125,Reighlyn,001,2020-11-20_14h58.20.531,test2,2020.2.5,MacIntel,60,,,,,,,
,,,,z,1.114595,0,125,125,125,1,houses/images/210.jpg,houses/images/104.jpg,126,Reighlyn,001,2020-11-20_14h58.20.531,test2,2020.2.5,MacIntel,60,,,,,,,
,,,,m,2.482605,0,126,126,126,1,houses/images/211.jpg,houses/images/327.jpg,127,Reighlyn,001,2020-11-20_14h58.20.531,test2,2020.2.5,MacIntel,60,,,,,,,
,,,,z,1.09796,0,127,127,127,1,houses/images/212.jpg,houses/images/253.jpg,128,Reighlyn,001,2020-11-20_14h58.20.531,test2,2020.2.5,MacIntel,60,,,,,,,
,,,,m,1.835125,0,128,128,128,1,houses/images/213.jpg,houses/images/26.jpg,129,Reighlyn,001,2020-11-20_14h58.20.531,test2,2020.2.5,MacIntel,60,,,,,,,
,,,,z,1.23408,0,129,129,129,1,houses/images/214.jpg,houses/images/198.jpg,130,Reighlyn,001,2020-11-20_14h58.20.531,test2,2020.2.5,MacIntel,60,,,,,,,
,,,,z,2.440175,0,130,130,130,1,houses/images/215.jpg,houses/images/4.jpg,131,Reighlyn,001,2020-11-20_14h58.20.531,test2,2020.2.5,MacIntel,60,,,,,,,
,,,,m,1.90183,0,131,131,131,1,houses/images/316.jpg,houses/images/62.jpg,132,Reighlyn,001,2020-11-20_14h58.20.531,test2,2020.2.5,MacIntel,60,,,,,,,
,,,,m,5.952035,0,132,132,132,1,houses/images/217.jpg,houses/images/114.jpg,133,Reighlyn,001,2020-11-20_14h58.20.531,test2,2020.2.5,MacIntel,60,,,,,,,
,,,,z,3.077555,0,133,133,133,1,houses/images/318.jpg,houses/images/308.jpg,134,Reighlyn,001,2020-11-20_14h58.20.531,test2,2020.2.5,MacIntel,60,,,,,,,
,,,,m,3.41917,0,134,134,134,1,houses/images/219.jpg,houses/images/254.jpg,135,Reighlyn,001,2020-11-20_14h58.20.531,test2,2020.2.5,MacIntel,60,,,,,,,
,,,,z,2.074355,0,135,135,135,1,houses/images/22.jpg,houses/images/170.jpg,136,Reighlyn,001,2020-11-20_14h58.20.531,test2,2020.2.5,MacIntel,60,,,,,,,
,,,,z,2.567715,0,136,136,136,1,houses/images/220.jpg,houses/images/179.jpg,137,Reighlyn,001,2020-11-20_14h58.20.531,test2,2020.2.5,MacIntel,60,,,,,,,
,,,,m,2.33008,0,137,137,137,1,houses/images/221.jpg,houses/images/238.jpg,138,Reighlyn,001,2020-11-20_14h58.20.531,test2,2020.2.5,MacIntel,60,,,,,,,
,,,,z,1.70873,0,138,138,138,1,houses/images/222.jpg,houses/images/256.jpg,139,Reighlyn,001,2020-11-20_14h58.20.531,test2,2020.2.5,MacIntel,60,,,,,,,
,,,,z,3.89972,0,139,139,139,1,houses/images/223.jpg,houses/images/322.jpg,140,Reighlyn,001,2020-11-20_14h58.20.531,test2,2020.2.5,MacIntel,60,,,,,,,
,,,,m,2.09148,0,140,140,140,1,houses/images/224.jpg,houses/images/209.jpg,141,Reighlyn,001,2020-11-20_14h58.20.531,test2,2020.2.5,MacIntel,60,,,,,,,
,,,,z,0.969375,0,141,141,141,1,houses/images/225.jpg,houses/images/219.jpg,142,Reighlyn,001,2020-11-20_14h58.20.531,test2,2020.2.5,MacIntel,60,,,,,,,
,,,,m,1.50662,0,142,142,142,1,houses/images/226.jpg,houses/images/79.jpg,143,Reighlyn,001,2020-11-20_14h58.20.531,test2,2020.2.5,MacIntel,60,,,,,,,
,,,,z,1.4825,0,143,143,143,1,houses/images/227.jpg,houses/images/279.jpg,144,Reighlyn,001,2020-11-20_14h58.20.531,test2,2020.2.5,MacIntel,60,,,,,,,
,,,,z,2.25054,0,144,144,144,1,houses/images/228.jpg,houses/images/111.jpg,145,Reighlyn,001,2020-11-20_14h58.20.531,test2,2020.2.5,MacIntel,60,,,,,,,
,,,,m,1.54916,0,145,145,145,1,houses/images/229.jpg,houses/images/257.jpg,146,Reighlyn,001,2020-11-20_14h58.20.531,test2,2020.2.5,MacIntel,60,,,,,,,
,,,,m,1.40069,0,146,146,146,1,houses/images/23.jpg,houses/images/318.jpg,147,Reighlyn,001,2020-11-20_14h58.20.531,test2,2020.2.5,MacIntel,60,,,,,,,
,,,,m,1.5738,0,147,147,147,1,houses/images/230.jpg,houses/images/312.jpg,148,Reighlyn,001,2020-11-20_14h58.20.531,test2,2020.2.5,MacIntel,60,,,,,,,
,,,,m,3.0119,0,148,148,148,1,houses/images/231.jpg,houses/images/253.jpg,149,Reighlyn,001,2020-11-20_14h58.20.531,test2,2020.2.5,MacIntel,60,,,,,,,
,,,,m,1.685655,0,149,149,149,1,houses/images/232.jpg,houses/images/236.jpg,150,Reighlyn,001,2020-11-20_14h58.20.531,test2,2020.2.5,MacIntel,60,,,,,,,
,,,,z,2.08184,0,150,150,150,1,houses/images/233.jpg,houses/images/66.jpg,151,Reighlyn,001,2020-11-20_14h58.20.531,test2,2020.2.5,MacIntel,60,,,,,,,
,,,,m,1.27642,0,151,151,151,1,houses/images/234.jpg,houses/images/138.jpg,152,Reighlyn,001,2020-11-20_14h58.20.531,test2,2020.2.5,MacIntel,60,,,,,,,
,,,,m,1.4102,0,152,152,152,1,houses/images/235.jpg,houses/images/124.jpg,153,Reighlyn,001,2020-11-20_14h58.20.531,test2,2020.2.5,MacIntel,60,,,,,,,
,,,,m,2.753975,0,153,153,153,1,houses/images/236.jpg,houses/images/160.jpg,154,Reighlyn,001,2020-11-20_14h58.20.531,test2,2020.2.5,MacIntel,60,,,,,,,
,,,,m,1.677665,0,154,154,154,1,houses/images/237.jpg,houses/images/314.jpg,155,Reighlyn,001,2020-11-20_14h58.20.531,test2,2020.2.5,MacIntel,60,,,,,,,
,,,,z,3.46604,0,155,155,155,1,houses/images/238.jpg,houses/images/145.jpg,156,Reighlyn,001,2020-11-20_14h58.20.531,test2,2020.2.5,MacIntel,60,,,,,,,
,,,,m,3.588395,0,156,156,156,1,houses/images/239.jpg,houses/images/195.jpg,157,Reighlyn,001,2020-11-20_14h58.20.531,test2,2020.2.5,MacIntel,60,,,,,,,
,,,,m,1.369515,0,157,157,157,1,houses/images/24.jpg,houses/images/0.jpg,158,Reighlyn,001,2020-11-20_14h58.20.531,test2,2020.2.5,MacIntel,60,,,,,,,
,,,,m,1.353205,0,158,158,158,1,houses/images/240.jpg,houses/images/81.jpg,159,Reighlyn,001,2020-11-20_14h58.20.531,test2,2020.2.5,MacIntel,60,,,,,,,
,,,,m,1.987105,0,159,159,159,1,houses/images/241.jpg,houses/images/226.jpg,160,Reighlyn,001,2020-11-20_14h58.20.531,test2,2020.2.5,MacIntel,60,,,,,,,
,,,,m,1.236155,0,160,160,160,1,houses/images/342.jpg,houses/images/319.jpg,161,Reighlyn,001,2020-11-20_14h58.20.531,test2,2020.2.5,MacIntel,60,,,,,,,
,,,,z,1.71029,0,161,161,161,1,houses/images/243.jpg,houses/images/23.jpg,162,Reighlyn,001,2020-11-20_14h58.20.531,test2,2020.2.5,MacIntel,60,,,,,,,
,,,,z,1.19647,0,162,162,162,1,houses/images/244.jpg,houses/images/146.jpg,163,Reighlyn,001,2020-11-20_14h58.20.531,test2,2020.2.5,MacIntel,60,,,,,,,
,,,,m,0.94376,0,163,163,163,1,houses/images/245.jpg,houses/images/28.jpg,164,Reighlyn,001,2020-11-20_14h58.20.531,test2,2020.2.5,MacIntel,60,,,,,,,
,,,,z,6.310895,0,164,164,164,1,houses/images/246.jpg,houses/images/157.jpg,165,Reighlyn,001,2020-11-20_14h58.20.531,test2,2020.2.5,MacIntel,60,,,,,,,
,,,,m,1.16655,0,165,165,165,1,houses/images/247.jpg,houses/images/2.jpg,166,Reighlyn,001,2020-11-20_14h58.20.531,test2,2020.2.5,MacIntel,60,,,,,,,
,,,,m,1.24966,0,166,166,166,1,houses/images/248.jpg,houses/images/87.jpg,167,Reighlyn,001,2020-11-20_14h58.20.531,test2,2020.2.5,MacIntel,60,,,,,,,
,,,,m,2.287905,0,167,167,167,1,houses/images/249.jpg,houses/images/270.jpg,168,Reighlyn,001,2020-11-20_14h58.20.531,test2,2020.2.5,MacIntel,60,,,,,,,
,,,,m,1.376655,0,168,168,168,1,houses/images/25.jpg,houses/images/67.jpg,169,Reighlyn,001,2020-11-20_14h58.20.531,test2,2020.2.5,MacIntel,60,,,,,,,
,,,,m,1.49248,0,169,169,169,1,houses/images/250.jpg,houses/images/234.jpg,170,Reighlyn,001,2020-11-20_14h58.20.531,test2,2020.2.5,MacIntel,60,,,,,,,
,,,,m,2.94323,0,170,170,170,1,houses/images/251.jpg,houses/images/16.jpg,171,Reighlyn,001,2020-11-20_14h58.20.531,test2,2020.2.5,MacIntel,60,,,,,,,
,,,,z,2.061195,0,171,171,171,1,houses/images/252.jpg,houses/images/12.jpg,172,Reighlyn,001,2020-11-20_14h58.20.531,test2,2020.2.5,MacIntel,60,,,,,,,
,,,,z,3.228745,0,172,172,172,1,houses/images/253.jpg,houses/images/185.jpg,173,Reighlyn,001,2020-11-20_14h58.20.531,test2,2020.2.5,MacIntel,60,,,,,,,
,,,,m,1.85164,0,173,173,173,1,houses/images/254.jpg,houses/images/39.jpg,174,Reighlyn,001,2020-11-20_14h58.20.531,test2,2020.2.5,MacIntel,60,,,,,,,
,,,,z,1.2225,0,174,174,174,1,houses/images/255.jpg,houses/images/237.jpg,175,Reighlyn,001,2020-11-20_14h58.20.531,test2,2020.2.5,MacIntel,60,,,,,,,
,,,,m,3.248815,0,175,175,175,1,houses/images/256.jpg,houses/images/356.jpg,176,Reighlyn,001,2020-11-20_14h58.20.531,test2,2020.2.5,MacIntel,60,,,,,,,
,,,,m,1.86461,0,176,176,176,1,houses/images/257.jpg,houses/images/107.jpg,177,Reighlyn,001,2020-11-20_14h58.20.531,test2,2020.2.5,MacIntel,60,,,,,,,
,,,,z,1.71796,0,177,177,177,1,houses/images/258.jpg,houses/images/84.jpg,178,Reighlyn,001,2020-11-20_14h58.20.531,test2,2020.2.5,MacIntel,60,,,,,,,
,,,,m,1.430405,0,178,178,178,1,houses/images/259.jpg,houses/images/119.jpg,179,Reighlyn,001,2020-11-20_14h58.20.531,test2,2020.2.5,MacIntel,60,,,,,,,
,,,,z,2.08328,0,179,179,179,1,houses/images/26.jpg,houses/images/227.jpg,180,Reighlyn,001,2020-11-20_14h58.20.531,test2,2020.2.5,MacIntel,60,,,,,,,
,,,,m,2.76079,0,180,180,180,1,houses/images/260.jpg,houses/images/238.jpg,181,Reighlyn,001,2020-11-20_14h58.20.531,test2,2020.2.5,MacIntel,60,,,,,,,
,,,,z,3.72496,0,181,181,181,1,houses/images/261.jpg,houses/images/337.jpg,182,Reighlyn,001,2020-11-20_14h58.20.531,test2,2020.2.5,MacIntel,60,,,,,,,
,,,,m,2.63485,0,182,182,182,1,houses/images/262.jpg,houses/images/214.jpg,183,Reighlyn,001,2020-11-20_14h58.20.531,test2,2020.2.5,MacIntel,60,,,,,,,
,,,,z,1.74657,0,183,183,183,1,houses/images/263.jpg,houses/images/239.jpg,184,Reighlyn,001,2020-11-20_14h58.20.531,test2,2020.2.5,MacIntel,60,,,,,,,
,,,,m,3.475775,0,184,184,184,1,houses/images/264.jpg,houses/images/149.jpg,185,Reighlyn,001,2020-11-20_14h58.20.531,test2,2020.2.5,MacIntel,60,,,,,,,
,,,,m,3.44993,0,185,185,185,1,houses/images/265.jpg,houses/images/68.jpg,186,Reighlyn,001,2020-11-20_14h58.20.531,test2,2020.2.5,MacIntel,60,,,,,,,
,,,,m,1.87293,0,186,186,186,1,houses/images/266.jpg,houses/images/271.jpg,187,Reighlyn,001,2020-11-20_14h58.20.531,test2,2020.2.5,MacIntel,60,,,,,,,
,,,,m,1.28192,0,187,187,187,1,houses/images/267.jpg,houses/images/87.jpg,188,Reighlyn,001,2020-11-20_14h58.20.531,test2,2020.2.5,MacIntel,60,,,,,,,
,,,,m,1.66168,0,188,188,188,1,houses/images/268.jpg,houses/images/348.jpg,189,Reighlyn,001,2020-11-20_14h58.20.531,test2,2020.2.5,MacIntel,60,,,,,,,
,,,,m,1.518365,0,189,189,189,1,houses/images/269.jpg,houses/images/228.jpg,190,Reighlyn,001,2020-11-20_14h58.20.531,test2,2020.2.5,MacIntel,60,,,,,,,
,,,,z,1.03409,0,190,190,190,1,houses/images/27.jpg,houses/images/317.jpg,191,Reighlyn,001,2020-11-20_14h58.20.531,test2,2020.2.5,MacIntel,60,,,,,,,
,,,,m,6.834835,0,191,191,191,1,houses/images/270.jpg,houses/images/10.jpg,192,Reighlyn,001,2020-11-20_14h58.20.531,test2,2020.2.5,MacIntel,60,,,,,,,
,,,,z,6.184535,0,192,192,192,1,houses/images/271.jpg,houses/images/222.jpg,193,Reighlyn,001,2020-11-20_14h58.20.531,test2,2020.2.5,MacIntel,60,,,,,,,
,,,,m,2.307325,0,193,193,193,1,houses/images/272.jpg,houses/images/314.jpg,194,Reighlyn,001,2020-11-20_14h58.20.531,test2,2020.2.5,MacIntel,60,,,,,,,
,,,,m,1.03238,0,194,194,194,1,houses/images/273.jpg,houses/images/28.jpg,195,Reighlyn,001,2020-11-20_14h58.20.531,test2,2020.2.5,MacIntel,60,,,,,,,
,,,,z,5.21932,0,195,195,195,1,houses/images/174.jpg,houses/images/294.jpg,196,Reighlyn,001,2020-11-20_14h58.20.531,test2,2020.2.5,MacIntel,60,,,,,,,
,,,,z,3.985505,0,196,196,196,1,houses/images/275.jpg,houses/images/60.jpg,197,Reighlyn,001,2020-11-20_14h58.20.531,test2,2020.2.5,MacIntel,60,,,,,,,
,,,,z,1.25098,0,197,197,197,1,houses/images/276.jpg,houses/images/144.jpg,198,Reighlyn,001,2020-11-20_14h58.20.531,test2,2020.2.5,MacIntel,60,,,,,,,
,,,,m,2.611895,0,198,198,198,1,houses/images/277.jpg,houses/images/168.jpg,199,Reighlyn,001,2020-11-20_14h58.20.531,test2,2020.2.5,MacIntel,60,,,,,,,
,,,,z,2.782795,0,199,199,199,1,houses/images/278.jpg,houses/images/206.jpg,200,Reighlyn,001,2020-11-20_14h58.20.531,test2,2020.2.5,MacIntel,60,,,,,,,
,,,,z,493.91011,,,,,,houses/images/279.jpg,houses/images/91.jpg,1,Reighlyn,001,2020-11-20_14h58.20.531,test2,2020.2.5,MacIntel,60,space,1.706095,0,0,0,0,1
,,,,z,1.805565,,,,,,houses/images/28.jpg,houses/images/49.jpg,2,Reighlyn,001,2020-11-20_14h58.20.531,test2,2020.2.5,MacIntel,60,,,0,1,1,1,1
,,,,z,2.90715,,,,,,houses/images/280.jpg,houses/images/163.jpg,3,Reighlyn,001,2020-11-20_14h58.20.531,test2,2020.2.5,MacIntel,60,,,0,2,2,2,1
,,,,z,1.59693,,,,,,houses/images/281.jpg,houses/images/176.jpg,4,Reighlyn,001,2020-11-20_14h58.20.531,test2,2020.2.5,MacIntel,60,,,0,3,3,3,1
,,,,m,1.513955,,,,,,houses/images/282.jpg,houses/images/263.jpg,5,Reighlyn,001,2020-11-20_14h58.20.531,test2,2020.2.5,MacIntel,60,,,0,4,4,4,1
,,,,z,1.39713,,,,,,houses/images/283.jpg,houses/images/303.jpg,6,Reighlyn,001,2020-11-20_14h58.20.531,test2,2020.2.5,MacIntel,60,,,0,5,5,5,1
,,,,z,1.41622,,,,,,houses/images/284.jpg,houses/images/184.jpg,7,Reighlyn,001,2020-11-20_14h58.20.531,test2,2020.2.5,MacIntel,60,,,0,6,6,6,1
,,,,m,3.41961,,,,,,houses/images/285.jpg,houses/images/264.jpg,8,Reighlyn,001,2020-11-20_14h58.20.531,test2,2020.2.5,MacIntel,60,,,0,7,7,7,1
,,,,z,2.2465,,,,,,houses/images/286.jpg,houses/images/89.jpg,9,Reighlyn,001,2020-11-20_14h58.20.531,test2,2020.2.5,MacIntel,60,,,0,8,8,8,1
,,,,z,1.222865,,,,,,houses/images/187.jpg,houses/images/350.jpg,10,Reighlyn,001,2020-11-20_14h58.20.531,test2,2020.2.5,MacIntel,60,,,0,9,9,9,1
,,,,z,1.0472,,,,,,houses/images/288.jpg,houses/images/267.jpg,11,Reighlyn,001,2020-11-20_14h58.20.531,test2,2020.2.5,MacIntel,60,,,0,10,10,10,1
,,,,m,2.2318,,,,,,houses/images/289.jpg,houses/images/332.jpg,12,Reighlyn,001,2020-11-20_14h58.20.531,test2,2020.2.5,MacIntel,60,,,0,11,11,11,1
,,,,z,1.866435,,,,,,houses/images/29.jpg,houses/images/61.jpg,13,Reighlyn,001,2020-11-20_14h58.20.531,test2,2020.2.5,MacIntel,60,,,0,12,12,12,1
,,,,z,1.93411,,,,,,houses/images/290.jpg,houses/images/102.jpg,14,Reighlyn,001,2020-11-20_14h58.20.531,test2,2020.2.5,MacIntel,60,,,0,13,13,13,1
,,,,z,1.244585,,,,,,houses/images/291.jpg,houses/images/220.jpg,15,Reighlyn,001,2020-11-20_14h58.20.531,test2,2020.2.5,MacIntel,60,,,0,14,14,14,1
,,,,z,1.385445,,,,,,houses/images/292.jpg,houses/images/121.jpg,16,Reighlyn,001,2020-11-20_14h58.20.531,test2,2020.2.5,MacIntel,60,,,0,15,15,15,1
,,,,z,1.480365,,,,,,houses/images/293.jpg,houses/images/25.jpg,17,Reighlyn,001,2020-11-20_14h58.20.531,test2,2020.2.5,MacIntel,60,,,0,16,16,16,1
,,,,m,2.365605,,,,,,houses/images/294.jpg,houses/images/284.jpg,18,Reighlyn,001,2020-11-20_14h58.20.531,test2,2020.2.5,MacIntel,60,,,0,17,17,17,1
,,,,z,1.54296,,,,,,houses/images/295.jpg,houses/images/273.jpg,19,Reighlyn,001,2020-11-20_14h58.20.531,test2,2020.2.5,MacIntel,60,,,0,18,18,18,1
,,,,z,1.431325,,,,,,houses/images/296.jpg,houses/images/122.jpg,20,Reighlyn,001,2020-11-20_14h58.20.531,test2,2020.2.5,MacIntel,60,,,0,19,19,19,1
,,,,z,1.335,,,,,,houses/images/297.jpg,houses/images/217.jpg,21,Reighlyn,001,2020-11-20_14h58.20.531,test2,2020.2.5,MacIntel,60,,,0,20,20,20,1
,,,,z,1.23405,,,,,,houses/images/298.jpg,houses/images/178.jpg,22,Reighlyn,001,2020-11-20_14h58.20.531,test2,2020.2.5,MacIntel,60,,,0,21,21,21,1
,,,,z,1.516145,,,,,,houses/images/299.jpg,houses/images/43.jpg,23,Reighlyn,001,2020-11-20_14h58.20.531,test2,2020.2.5,MacIntel,60,,,0,22,22,22,1
,,,,m,4.4533,,,,,,houses/images/3.jpg,houses/images/229.jpg,24,Reighlyn,001,2020-11-20_14h58.20.531,test2,2020.2.5,MacIntel,60,,,0,23,23,23,1
,,,,z,1.464105,,,,,,houses/images/30.jpg,houses/images/177.jpg,25,Reighlyn,001,2020-11-20_14h58.20.531,test2,2020.2.5,MacIntel,60,,,0,24,24,24,1
,,,,z,1.183055,,,,,,houses/images/300.jpg,houses/images/342.jpg,26,Reighlyn,001,2020-11-20_14h58.20.531,test2,2020.2.5,MacIntel,60,,,0,25,25,25,1
,,,,z,1.28388,,,,,,houses/images/201.jpg,houses/images/57.jpg,27,Reighlyn,001,2020-11-20_14h58.20.531,test2,2020.2.5,MacIntel,60,,,0,26,26,26,1
,,,,z,1.41389,,,,,,houses/images/302.jpg,houses/images/186.jpg,28,Reighlyn,001,2020-11-20_14h58.20.531,test2,2020.2.5,MacIntel,60,,,0,27,27,27,1
,,,,m,2.503895,,,,,,houses/images/303.jpg,houses/images/131.jpg,29,Reighlyn,001,2020-11-20_14h58.20.531,test2,2020.2.5,MacIntel,60,,,0,28,28,28,1
,,,,z,0.983695,,,,,,houses/images/304.jpg,houses/images/183.jpg,30,Reighlyn,001,2020-11-20_14h58.20.531,test2,2020.2.5,MacIntel,60,,,0,29,29,29,1
,,,,m,2.0342,,,,,,houses/images/305.jpg,houses/images/200.jpg,31,Reighlyn,001,2020-11-20_14h58.20.531,test2,2020.2.5,MacIntel,60,,,0,30,30,30,1
,,,,m,1.892035,,,,,,houses/images/306.jpg,houses/images/94.jpg,32,Reighlyn,001,2020-11-20_14h58.20.531,test2,2020.2.5,MacIntel,60,,,0,31,31,31,1
,,,,z,1.151715,,,,,,houses/images/307.jpg,houses/images/96.jpg,33,Reighlyn,001,2020-11-20_14h58.20.531,test2,2020.2.5,MacIntel,60,,,0,32,32,32,1
,,,,z,1.14979,,,,,,houses/images/308.jpg,houses/images/76.jpg,34,Reighlyn,001,2020-11-20_14h58.20.531,test2,2020.2.5,MacIntel,60,,,0,33,33,33,1
,,,,z,2.45668,,,,,,houses/images/309.jpg,houses/images/78.jpg,35,Reighlyn,001,2020-11-20_14h58.20.531,test2,2020.2.5,MacIntel,60,,,0,34,34,34,1
,,,,m,1.20178,,,,,,houses/images/31.jpg,houses/images/76.jpg,36,Reighlyn,001,2020-11-20_14h58.20.531,test2,2020.2.5,MacIntel,60,,,0,35,35,35,1
,,,,z,1.73507,,,,,,houses/images/310.jpg,houses/images/128.jpg,37,Reighlyn,001,2020-11-20_14h58.20.531,test2,2020.2.5,MacIntel,60,,,0,36,36,36,1
,,,,z,1.11568,,,,,,houses/images/311.jpg,houses/images/190.jpg,38,Reighlyn,001,2020-11-20_14h58.20.531,test2,2020.2.5,MacIntel,60,,,0,37,37,37,1
,,,,z,4.82701,,,,,,houses/images/312.jpg,houses/images/5.jpg,39,Reighlyn,001,2020-11-20_14h58.20.531,test2,2020.2.5,MacIntel,60,,,0,38,38,38,1
,,,,m,2.33431,,,,,,houses/images/313.jpg,houses/images/188.jpg,40,Reighlyn,001,2020-11-20_14h58.20.531,test2,2020.2.5,MacIntel,60,,,0,39,39,39,1
,,,,z,1.581665,,,,,,houses/images/314.jpg,houses/images/342.jpg,41,Reighlyn,001,2020-11-20_14h58.20.531,test2,2020.2.5,MacIntel,60,,,0,40,40,40,1
,,,,z,5.59147,,,,,,houses/images/315.jpg,houses/images/288.jpg,42,Reighlyn,001,2020-11-20_14h58.20.531,test2,2020.2.5,MacIntel,60,,,0,41,41,41,1
,,,,z,2.697645,,,,,,houses/images/316.jpg,houses/images/321.jpg,43,Reighlyn,001,2020-11-20_14h58.20.531,test2,2020.2.5,MacIntel,60,,,0,42,42,42,1
,,,,m,1.682385,,,,,,houses/images/317.jpg,houses/images/82.jpg,44,Reighlyn,001,2020-11-20_14h58.20.531,test2,2020.2.5,MacIntel,60,,,0,43,43,43,1
,,,,z,1.611505,,,,,,houses/images/318.jpg,houses/images/169.jpg,45,Reighlyn,001,2020-11-20_14h58.20.531,test2,2020.2.5,MacIntel,60,,,0,44,44,44,1
,,,,z,1.22495,,,,,,houses/images/319.jpg,houses/images/224.jpg,46,Reighlyn,001,2020-11-20_14h58.20.531,test2,2020.2.5,MacIntel,60,,,0,45,45,45,1
,,,,z,1.683065,,,,,,houses/images/32.jpg,houses/images/175.jpg,47,Reighlyn,001,2020-11-20_14h58.20.531,test2,2020.2.5,MacIntel,60,,,0,46,46,46,1
,,,,m,2.52927,,,,,,houses/images/320.jpg,houses/images/247.jpg,48,Reighlyn,001,2020-11-20_14h58.20.531,test2,2020.2.5,MacIntel,60,,,0,47,47,47,1
,,,,m,1.239375,,,,,,houses/images/321.jpg,houses/images/97.jpg,49,Reighlyn,001,2020-11-20_14h58.20.531,test2,2020.2.5,MacIntel,60,,,0,48,48,48,1
,,,,z,1.94864,,,,,,houses/images/322.jpg,houses/images/74.jpg,50,Reighlyn,001,2020-11-20_14h58.20.531,test2,2020.2.5,MacIntel,60,,,0,49,49,49,1
,,,,z,1.134345,,,,,,houses/images/323.jpg,houses/images/148.jpg,51,Reighlyn,001,2020-11-20_14h58.20.531,test2,2020.2.5,MacIntel,60,,,0,50,50,50,1
,,,,z,1.58284,,,,,,houses/images/324.jpg,houses/images/313.jpg,52,Reighlyn,001,2020-11-20_14h58.20.531,test2,2020.2.5,MacIntel,60,,,0,51,51,51,1
,,,,m,1.491235,,,,,,houses/images/325.jpg,houses/images/11.jpg,53,Reighlyn,001,2020-11-20_14h58.20.531,test2,2020.2.5,MacIntel,60,,,0,52,52,52,1
,,,,z,1.750225,,,,,,houses/images/326.jpg,houses/images/21.jpg,54,Reighlyn,001,2020-11-20_14h58.20.531,test2,2020.2.5,MacIntel,60,,,0,53,53,53,1
,,,,z,1.516165,,,,,,houses/images/327.jpg,houses/images/281.jpg,55,Reighlyn,001,2020-11-20_14h58.20.531,test2,2020.2.5,MacIntel,60,,,0,54,54,54,1
,,,,z,1.114205,,,,,,houses/images/328.jpg,houses/images/172.jpg,56,Reighlyn,001,2020-11-20_14h58.20.531,test2,2020.2.5,MacIntel,60,,,0,55,55,55,1
,,,,z,0.977905,,,,,,houses/images/329.jpg,houses/images/273.jpg,57,Reighlyn,001,2020-11-20_14h58.20.531,test2,2020.2.5,MacIntel,60,,,0,56,56,56,1
,,,,m,1.00872,,,,,,houses/images/33.jpg,houses/images/239.jpg,58,Reighlyn,001,2020-11-20_14h58.20.531,test2,2020.2.5,MacIntel,60,,,0,57,57,57,1
,,,,z,1.890585,,,,,,houses/images/330.jpg,houses/images/333.jpg,59,Reighlyn,001,2020-11-20_14h58.20.531,test2,2020.2.5,MacIntel,60,,,0,58,58,58,1
,,,,z,2.08735,,,,,,houses/images/331.jpg,houses/images/361.jpg,60,Reighlyn,001,2020-11-20_14h58.20.531,test2,2020.2.5,MacIntel,60,,,0,59,59,59,1
,,,,z,2.34121,,,,,,houses/images/332.jpg,houses/images/91.jpg,61,Reighlyn,001,2020-11-20_14h58.20.531,test2,2020.2.5,MacIntel,60,,,0,60,60,60,1
,,,,z,2.770235,,,,,,houses/images/333.jpg,houses/images/158.jpg,62,Reighlyn,001,2020-11-20_14h58.20.531,test2,2020.2.5,MacIntel,60,,,0,61,61,61,1
,,,,m,1.450495,,,,,,houses/images/334.jpg,houses/images/10.jpg,63,Reighlyn,001,2020-11-20_14h58.20.531,test2,2020.2.5,MacIntel,60,,,0,62,62,62,1
,,,,m,2.977005,,,,,,houses/images/335.jpg,houses/images/331.jpg,64,Reighlyn,001,2020-11-20_14h58.20.531,test2,2020.2.5,MacIntel,60,,,0,63,63,63,1
,,,,m,2.551565,,,,,,houses/images/336.jpg,houses/images/171.jpg,65,Reighlyn,001,2020-11-20_14h58.20.531,test2,2020.2.5,MacIntel,60,,,0,64,64,64,1
,,,,m,1.956795,,,,,,houses/images/337.jpg,houses/images/226.jpg,66,Reighlyn,001,2020-11-20_14h58.20.531,test2,2020.2.5,MacIntel,60,,,0,65,65,65,1
,,,,m,1.7416,,,,,,houses/images/238.jpg,houses/images/214.jpg,67,Reighlyn,001,2020-11-20_14h58.20.531,test2,2020.2.5,MacIntel,60,,,0,66,66,66,1
,,,,m,1.91158,,,,,,houses/images/239.jpg,houses/images/130.jpg,68,Reighlyn,001,2020-11-20_14h58.20.531,test2,2020.2.5,MacIntel,60,,,0,67,67,67,1
,,,,z,1.159315,,,,,,houses/images/34.jpg,houses/images/85.jpg,69,Reighlyn,001,2020-11-20_14h58.20.531,test2,2020.2.5,MacIntel,60,,,0,68,68,68,1
,,,,z,1.69598,,,,,,houses/images/340.jpg,houses/images/248.jpg,70,Reighlyn,001,2020-11-20_14h58.20.531,test2,2020.2.5,MacIntel,60,,,0,69,69,69,1
,,,,z,1.326075,,,,,,houses/images/341.jpg,houses/images/215.jpg,71,Reighlyn,001,2020-11-20_14h58.20.531,test2,2020.2.5,MacIntel,60,,,0,70,70,70,1
,,,,m,2.065035,,,,,,houses/images/342.jpg,houses/images/155.jpg,72,Reighlyn,001,2020-11-20_14h58.20.531,test2,2020.2.5,MacIntel,60,,,0,71,71,71,1
,,,,m,3.66835,,,,,,houses/images/343.jpg,houses/images/193.jpg,73,Reighlyn,001,2020-11-20_14h58.20.531,test2,2020.2.5,MacIntel,60,,,0,72,72,72,1
,,,,z,1.175545,,,,,,houses/images/344.jpg,houses/images/324.jpg,74,Reighlyn,001,2020-11-20_14h58.20.531,test2,2020.2.5,MacIntel,60,,,0,73,73,73,1
,,,,z,1.810675,,,,,,houses/images/345.jpg,houses/images/86.jpg,75,Reighlyn,001,2020-11-20_14h58.20.531,test2,2020.2.5,MacIntel,60,,,0,74,74,74,1
,,,,z,1.854905,,,,,,houses/images/246.jpg,houses/images/295.jpg,76,Reighlyn,001,2020-11-20_14h58.20.531,test2,2020.2.5,MacIntel,60,,,0,75,75,75,1
,,,,z,2.348435,,,,,,houses/images/347.jpg,houses/images/292.jpg,77,Reighlyn,001,2020-11-20_14h58.20.531,test2,2020.2.5,MacIntel,60,,,0,76,76,76,1
,,,,m,1.59546,,,,,,houses/images/348.jpg,houses/images/55.jpg,78,Reighlyn,001,2020-11-20_14h58.20.531,test2,2020.2.5,MacIntel,60,,,0,77,77,77,1
,,,,m,1.129805,,,,,,houses/images/349.jpg,houses/images/1.jpg,79,Reighlyn,001,2020-11-20_14h58.20.531,test2,2020.2.5,MacIntel,60,,,0,78,78,78,1
,,,,z,0.80989,,,,,,houses/images/35.jpg,houses/images/73.jpg,80,Reighlyn,001,2020-11-20_14h58.20.531,test2,2020.2.5,MacIntel,60,,,0,79,79,79,1
,,,,m,2.604075,,,,,,houses/images/350.jpg,houses/images/44.jpg,81,Reighlyn,001,2020-11-20_14h58.20.531,test2,2020.2.5,MacIntel,60,,,0,80,80,80,1
,,,,m,1.236435,,,,,,houses/images/351.jpg,houses/images/6.jpg,82,Reighlyn,001,2020-11-20_14h58.20.531,test2,2020.2.5,MacIntel,60,,,0,81,81,81,1
,,,,m,1.94112,,,,,,houses/images/352.jpg,houses/images/20.jpg,83,Reighlyn,001,2020-11-20_14h58.20.531,test2,2020.2.5,MacIntel,60,,,0,82,82,82,1
,,,,m,1.81046,,,,,,houses/images/353.jpg,houses/images/18.jpg,84,Reighlyn,001,2020-11-20_14h58.20.531,test2,2020.2.5,MacIntel,60,,,0,83,83,83,1
,,,,m,2.055375,,,,,,houses/images/354.jpg,houses/images/347.jpg,85,Reighlyn,001,2020-11-20_14h58.20.531,test2,2020.2.5,MacIntel,60,,,0,84,84,84,1
,,,,z,1.818385,,,,,,houses/images/355.jpg,houses/images/27.jpg,86,Reighlyn,001,2020-11-20_14h58.20.531,test2,2020.2.5,MacIntel,60,,,0,85,85,85,1
,,,,m,2.351175,,,,,,houses/images/356.jpg,houses/images/276.jpg,87,Reighlyn,001,2020-11-20_14h58.20.531,test2,2020.2.5,MacIntel,60,,,0,86,86,86,1
,,,,m,1.489905,,,,,,houses/images/357.jpg,houses/images/345.jpg,88,Reighlyn,001,2020-11-20_14h58.20.531,test2,2020.2.5,MacIntel,60,,,0,87,87,87,1
,,,,z,1.11045,,,,,,houses/images/358.jpg,houses/images/235.jpg,89,Reighlyn,001,2020-11-20_14h58.20.531,test2,2020.2.5,MacIntel,60,,,0,88,88,88,1
,,,,m,1.67514,,,,,,houses/images/359.jpg,houses/images/115.jpg,90,Reighlyn,001,2020-11-20_14h58.20.531,test2,2020.2.5,MacIntel,60,,,0,89,89,89,1
,,,,z,1.36053,,,,,,houses/images/36.jpg,houses/images/310.jpg,91,Reighlyn,001,2020-11-20_14h58.20.531,test2,2020.2.5,MacIntel,60,,,0,90,90,90,1
,,,,m,1.300735,,,,,,houses/images/360.jpg,houses/images/93.jpg,92,Reighlyn,001,2020-11-20_14h58.20.531,test2,2020.2.5,MacIntel,60,,,0,91,91,91,1
,,,,z,2.10774,,,,,,houses/images/361.jpg,houses/images/212.jpg,93,Reighlyn,001,2020-11-20_14h58.20.531,test2,2020.2.5,MacIntel,60,,,0,92,92,92,1
,,,,z,2.864415,,,,,,houses/images/62.jpg,houses/images/51.jpg,94,Reighlyn,001,2020-11-20_14h58.20.531,test2,2020.2.5,MacIntel,60,,,0,93,93,93,1
,,,,z,1.00708,,,,,,houses/images/37.jpg,houses/images/108.jpg,95,Reighlyn,001,2020-11-20_14h58.20.531,test2,2020.2.5,MacIntel,60,,,0,94,94,94,1
,,,,z,1.198725,,,,,,houses/images/38.jpg,houses/images/127.jpg,96,Reighlyn,001,2020-11-20_14h58.20.531,test2,2020.2.5,MacIntel,60,,,0,95,95,95,1
,,,,z,1.96629,,,,,,houses/images/39.jpg,houses/images/52.jpg,97,Reighlyn,001,2020-11-20_14h58.20.531,test2,2020.2.5,MacIntel,60,,,0,96,96,96,1
,,,,m,1.61811,,,,,,houses/images/4.jpg,houses/images/318.jpg,98,Reighlyn,001,2020-11-20_14h58.20.531,test2,2020.2.5,MacIntel,60,,,0,97,97,97,1
,,,,m,1.29898,,,,,,houses/images/40.jpg,houses/images/201.jpg,99,Reighlyn,001,2020-11-20_14h58.20.531,test2,2020.2.5,MacIntel,60,,,0,98,98,98,1
,,,,z,2.128185,,,,,,houses/images/41.jpg,houses/images/7.jpg,100,Reighlyn,001,2020-11-20_14h58.20.531,test2,2020.2.5,MacIntel,60,,,0,99,99,99,1
,,,,m,2.26846,,,,,,houses/images/42.jpg,houses/images/340.jpg,101,Reighlyn,001,2020-11-20_14h58.20.531,test2,2020.2.5,MacIntel,60,,,0,100,100,100,1
,,,,m,1.32712,,,,,,houses/images/43.jpg,houses/images/150.jpg,102,Reighlyn,001,2020-11-20_14h58.20.531,test2,2020.2.5,MacIntel,60,,,0,101,101,101,1
,,,,z,1.846435,,,,,,houses/images/44.jpg,houses/images/246.jpg,103,Reighlyn,001,2020-11-20_14h58.20.531,test2,2020.2.5,MacIntel,60,,,0,102,102,102,1
,,,,m,1.068255,,,,,,houses/images/145.jpg,houses/images/18.jpg,104,Reighlyn,001,2020-11-20_14h58.20.531,test2,2020.2.5,MacIntel,60,,,0,103,103,103,1
,,,,z,1.933425,,,,,,houses/images/46.jpg,houses/images/211.jpg,105,Reighlyn,001,2020-11-20_14h58.20.531,test2,2020.2.5,MacIntel,60,,,0,104,104,104,1
,,,,z,1.116995,,,,,,houses/images/47.jpg,houses/images/282.jpg,106,Reighlyn,001,2020-11-20_14h58.20.531,test2,2020.2.5,MacIntel,60,,,0,105,105,105,1
,,,,m,1.729925,,,,,,houses/images/48.jpg,houses/images/145.jpg,107,Reighlyn,001,2020-11-20_14h58.20.531,test2,2020.2.5,MacIntel,60,,,0,106,106,106,1
,,,,m,1.47305,,,,,,houses/images/49.jpg,houses/images/135.jpg,108,Reighlyn,001,2020-11-20_14h58.20.531,test2,2020.2.5,MacIntel,60,,,0,107,107,107,1
,,,,z,0.88543,,,,,,houses/images/5.jpg,houses/images/59.jpg,109,Reighlyn,001,2020-11-20_14h58.20.531,test2,2020.2.5,MacIntel,60,,,0,108,108,108,1
,,,,z,1.38594,,,,,,houses/images/50.jpg,houses/images/164.jpg,110,Reighlyn,001,2020-11-20_14h58.20.531,test2,2020.2.5,MacIntel,60,,,0,109,109,109,1
,,,,z,1.408945,,,,,,houses/images/51.jpg,houses/images/42.jpg,111,Reighlyn,001,2020-11-20_14h58.20.531,test2,2020.2.5,MacIntel,60,,,0,110,110,110,1
,,,,z,1.235945,,,,,,houses/images/52.jpg,houses/images/32.jpg,112,Reighlyn,001,2020-11-20_14h58.20.531,test2,2020.2.5,MacIntel,60,,,0,111,111,111,1
,,,,z,1.48354,,,,,,houses/images/53.jpg,houses/images/357.jpg,113,Reighlyn,001,2020-11-20_14h58.20.531,test2,2020.2.5,MacIntel,60,,,0,112,112,112,1
,,,,m,1.12393,,,,,,houses/images/54.jpg,houses/images/305.jpg,114,Reighlyn,001,2020-11-20_14h58.20.531,test2,2020.2.5,MacIntel,60,,,0,113,113,113,1
,,,,z,1.36923,,,,,,houses/images/55.jpg,houses/images/352.jpg,115,Reighlyn,001,2020-11-20_14h58.20.531,test2,2020.2.5,MacIntel,60,,,0,114,114,114,1
,,,,z,1.659745,,,,,,houses/images/56.jpg,houses/images/273.jpg,116,Reighlyn,001,2020-11-20_14h58.20.531,test2,2020.2.5,MacIntel,60,,,0,115,115,115,1
,,,,m,1.38506,,,,,,houses/images/57.jpg,houses/images/143.jpg,117,Reighlyn,001,2020-11-20_14h58.20.531,test2,2020.2.5,MacIntel,60,,,0,116,116,116,1
,,,,z,1.381265,,,,,,houses/images/58.jpg,houses/images/95.jpg,118,Reighlyn,001,2020-11-20_14h58.20.531,test2,2020.2.5,MacIntel,60,,,0,117,117,117,1
,,,,m,1.672045,,,,,,houses/images/59.jpg,houses/images/244.jpg,119,Reighlyn,001,2020-11-20_14h58.20.531,test2,2020.2.5,MacIntel,60,,,0,118,118,118,1
,,,,m,1.575495,,,,,,houses/images/6.jpg,houses/images/202.jpg,120,Reighlyn,001,2020-11-20_14h58.20.531,test2,2020.2.5,MacIntel,60,,,0,119,119,119,1
,,,,z,2.41599,,,,,,houses/images/60.jpg,houses/images/203.jpg,121,Reighlyn,001,2020-11-20_14h58.20.531,test2,2020.2.5,MacIntel,60,,,0,120,120,120,1
,,,,m,1.069015,,,,,,houses/images/61.jpg,houses/images/123.jpg,122,Reighlyn,001,2020-11-20_14h58.20.531,test2,2020.2.5,MacIntel,60,,,0,121,121,121,1
,,,,z,1.154035,,,,,,houses/images/62.jpg,houses/images/353.jpg,123,Reighlyn,001,2020-11-20_14h58.20.531,test2,2020.2.5,MacIntel,60,,,0,122,122,122,1
,,,,z,1.194305,,,,,,houses/images/63.jpg,houses/images/281.jpg,124,Reighlyn,001,2020-11-20_14h58.20.531,test2,2020.2.5,MacIntel,60,,,0,123,123,123,1
,,,,m,1.013975,,,,,,houses/images/64.jpg,houses/images/280.jpg,125,Reighlyn,001,2020-11-20_14h58.20.531,test2,2020.2.5,MacIntel,60,,,0,124,124,124,1
,,,,z,1.450695,,,,,,houses/images/65.jpg,houses/images/309.jpg,126,Reighlyn,001,2020-11-20_14h58.20.531,test2,2020.2.5,MacIntel,60,,,0,125,125,125,1
,,,,m,1.603905,,,,,,houses/images/66.jpg,houses/images/302.jpg,127,Reighlyn,001,2020-11-20_14h58.20.531,test2,2020.2.5,MacIntel,60,,,0,126,126,126,1
,,,,z,2.281945,,,,,,houses/images/67.jpg,houses/images/300.jpg,128,Reighlyn,001,2020-11-20_14h58.20.531,test2,2020.2.5,MacIntel,60,,,0,127,127,127,1
,,,,z,1.011665,,,,,,houses/images/68.jpg,houses/images/328.jpg,129,Reighlyn,001,2020-11-20_14h58.20.531,test2,2020.2.5,MacIntel,60,,,0,128,128,128,1
,,,,z,2.39212,,,,,,houses/images/69.jpg,houses/images/114.jpg,130,Reighlyn,001,2020-11-20_14h58.20.531,test2,2020.2.5,MacIntel,60,,,0,129,129,129,1
,,,,z,1.602465,,,,,,houses/images/7.jpg,houses/images/31.jpg,131,Reighlyn,001,2020-11-20_14h58.20.531,test2,2020.2.5,MacIntel,60,,,0,130,130,130,1
,,,,z,1.983425,,,,,,houses/images/70.jpg,houses/images/54.jpg,132,Reighlyn,001,2020-11-20_14h58.20.531,test2,2020.2.5,MacIntel,60,,,0,131,131,131,1
,,,,m,1.126635,,,,,,houses/images/71.jpg,houses/images/293.jpg,133,Reighlyn,001,2020-11-20_14h58.20.531,test2,2020.2.5,MacIntel,60,,,0,132,132,132,1
,,,,m,1.352265,,,,,,houses/images/72.jpg,houses/images/37.jpg,134,Reighlyn,001,2020-11-20_14h58.20.531,test2,2020.2.5,MacIntel,60,,,0,133,133,133,1
,,,,z,1.950465,,,,,,houses/images/73.jpg,houses/images/230.jpg,135,Reighlyn,001,2020-11-20_14h58.20.531,test2,2020.2.5,MacIntel,60,,,0,134,134,134,1
,,,,m,1.848385,,,,,,houses/images/74.jpg,houses/images/88.jpg,136,Reighlyn,001,2020-11-20_14h58.20.531,test2,2020.2.5,MacIntel,60,,,0,135,135,135,1
,,,,z,1.63687,,,,,,houses/images/75.jpg,houses/images/161.jpg,137,Reighlyn,001,2020-11-20_14h58.20.531,test2,2020.2.5,MacIntel,60,,,0,136,136,136,1
,,,,z,1.57756,,,,,,houses/images/76.jpg,houses/images/354.jpg,138,Reighlyn,001,2020-11-20_14h58.20.531,test2,2020.2.5,MacIntel,60,,,0,137,137,137,1
,,,,z,1.51652,,,,,,houses/images/77.jpg,houses/images/251.jpg,139,Reighlyn,001,2020-11-20_14h58.20.531,test2,2020.2.5,MacIntel,60,,,0,138,138,138,1
,,,,m,4.393125,,,,,,houses/images/78.jpg,houses/images/143.jpg,140,Reighlyn,001,2020-11-20_14h58.20.531,test2,2020.2.5,MacIntel,60,,,0,139,139,139,1
,,,,z,1.867155,,,,,,houses/images/79.jpg,houses/images/335.jpg,141,Reighlyn,001,2020-11-20_14h58.20.531,test2,2020.2.5,MacIntel,60,,,0,140,140,140,1
,,,,m,1.163575,,,,,,houses/images/8.jpg,houses/images/231.jpg,142,Reighlyn,001,2020-11-20_14h58.20.531,test2,2020.2.5,MacIntel,60,,,0,141,141,141,1
,,,,m,1.369835,,,,,,houses/images/80.jpg,houses/images/69.jpg,143,Reighlyn,001,2020-11-20_14h58.20.531,test2,2020.2.5,MacIntel,60,,,0,142,142,142,1
,,,,z,1.577575,,,,,,houses/images/81.jpg,houses/images/92.jpg,144,Reighlyn,001,2020-11-20_14h58.20.531,test2,2020.2.5,MacIntel,60,,,0,143,143,143,1
,,,,z,0.937485,,,,,,houses/images/82.jpg,houses/images/221.jpg,145,Reighlyn,001,2020-11-20_14h58.20.531,test2,2020.2.5,MacIntel,60,,,0,144,144,144,1
,,,,z,1.62201,,,,,,houses/images/83.jpg,houses/images/196.jpg,146,Reighlyn,001,2020-11-20_14h58.20.531,test2,2020.2.5,MacIntel,60,,,0,145,145,145,1
,,,,z,1.31655,,,,,,houses/images/84.jpg,houses/images/53.jpg,147,Reighlyn,001,2020-11-20_14h58.20.531,test2,2020.2.5,MacIntel,60,,,0,146,146,146,1
,,,,m,1.39921,,,,,,houses/images/85.jpg,houses/images/166.jpg,148,Reighlyn,001,2020-11-20_14h58.20.531,test2,2020.2.5,MacIntel,60,,,0,147,147,147,1
,,,,m,2.05238,,,,,,houses/images/86.jpg,houses/images/266.jpg,149,Reighlyn,001,2020-11-20_14h58.20.531,test2,2020.2.5,MacIntel,60,,,0,148,148,148,1
,,,,m,2.360835,,,,,,houses/images/87.jpg,houses/images/355.jpg,150,Reighlyn,001,2020-11-20_14h58.20.531,test2,2020.2.5,MacIntel,60,,,0,149,149,149,1
,,,,z,1.621935,,,,,,houses/images/88.jpg,houses/images/206.jpg,151,Reighlyn,001,2020-11-20_14h58.20.531,test2,2020.2.5,MacIntel,60,,,0,150,150,150,1
,,,,m,1.218515,,,,,,houses/images/89.jpg,houses/images/241.jpg,152,Reighlyn,001,2020-11-20_14h58.20.531,test2,2020.2.5,MacIntel,60,,,0,151,151,151,1
,,,,z,1.95101,,,,,,houses/images/9.jpg,houses/images/147.jpg,153,Reighlyn,001,2020-11-20_14h58.20.531,test2,2020.2.5,MacIntel,60,,,0,152,152,152,1
,,,,m,1.116505,,,,,,houses/images/90.jpg,houses/images/117.jpg,154,Reighlyn,001,2020-11-20_14h58.20.531,test2,2020.2.5,MacIntel,60,,,0,153,153,153,1
,,,,m,0.978485,,,,,,houses/images/91.jpg,houses/images/34.jpg,155,Reighlyn,001,2020-11-20_14h58.20.531,test2,2020.2.5,MacIntel,60,,,0,154,154,154,1
,,,,z,2.450055,,,,,,houses/images/92.jpg,houses/images/105.jpg,156,Reighlyn,001,2020-11-20_14h58.20.531,test2,2020.2.5,MacIntel,60,,,0,155,155,155,1
,,,,z,1.647165,,,,,,houses/images/93.jpg,houses/images/249.jpg,157,Reighlyn,001,2020-11-20_14h58.20.531,test2,2020.2.5,MacIntel,60,,,0,156,156,156,1
,,,,z,1.25016,,,,,,houses/images/94.jpg,houses/images/265.jpg,158,Reighlyn,001,2020-11-20_14h58.20.531,test2,2020.2.5,MacIntel,60,,,0,157,157,157,1
,,,,z,0.94449,,,,,,houses/images/95.jpg,houses/images/65.jpg,159,Reighlyn,001,2020-11-20_14h58.20.531,test2,2020.2.5,MacIntel,60,,,0,158,158,158,1
,,,,m,1.33501,,,,,,houses/images/96.jpg,houses/images/83.jpg,160,Reighlyn,001,2020-11-20_14h58.20.531,test2,2020.2.5,MacIntel,60,,,0,159,159,159,1
,,,,z,1.249715,,,,,,houses/images/97.jpg,houses/images/165.jpg,161,Reighlyn,001,2020-11-20_14h58.20.531,test2,2020.2.5,MacIntel,60,,,0,160,160,160,1
,,,,m,1.51613,,,,,,houses/images/98.jpg,houses/images/280.jpg,162,Reighlyn,001,2020-11-20_14h58.20.531,test2,2020.2.5,MacIntel,60,,,0,161,161,161,1
,,,,m,1.52494,,,,,,houses/images/199.jpg,houses/images/278.jpg,163,Reighlyn,001,2020-11-20_14h58.20.531,test2,2020.2.5,MacIntel,60,,,0,162,162,162,1
,,,,z,1.60099,,,,,,houses/images/0.jpg,houses/images/297.jpg,164,Reighlyn,001,2020-11-20_14h58.20.531,test2,2020.2.5,MacIntel,60,,,0,163,163,163,1
,,,,m,1.234385,,,,,,houses/images/1.jpg,houses/images/225.jpg,165,Reighlyn,001,2020-11-20_14h58.20.531,test2,2020.2.5,MacIntel,60,,,0,164,164,164,1
,,,,z,2.32683,,,,,,houses/images/10.jpg,houses/images/41.jpg,166,Reighlyn,001,2020-11-20_14h58.20.531,test2,2020.2.5,MacIntel,60,,,0,165,165,165,1
,,,,z,1.100845,,,,,,houses/images/100.jpg,houses/images/19.jpg,167,Reighlyn,001,2020-11-20_14h58.20.531,test2,2020.2.5,MacIntel,60,,,0,166,166,166,1
,,,,z,0.8956,,,,,,houses/images/101.jpg,houses/images/189.jpg,168,Reighlyn,001,2020-11-20_14h58.20.531,test2,2020.2.5,MacIntel,60,,,0,167,167,167,1
,,,,m,1.417855,,,,,,houses/images/102.jpg,houses/images/141.jpg,169,Reighlyn,001,2020-11-20_14h58.20.531,test2,2020.2.5,MacIntel,60,,,0,168,168,168,1
,,,,z,1.22575,,,,,,houses/images/103.jpg,houses/images/212.jpg,170,Reighlyn,001,2020-11-20_14h58.20.531,test2,2020.2.5,MacIntel,60,,,0,169,169,169,1
,,,,m,1.317345,,,,,,houses/images/104.jpg,houses/images/134.jpg,171,Reighlyn,001,2020-11-20_14h58.20.531,test2,2020.2.5,MacIntel,60,,,0,170,170,170,1
,,,,m,1.577335,,,,,,houses/images/105.jpg,houses/images/13.jpg,172,Reighlyn,001,2020-11-20_14h58.20.531,test2,2020.2.5,MacIntel,60,,,0,171,171,171,1
,,,,z,1.10969,,,,,,houses/images/106.jpg,houses/images/258.jpg,173,Reighlyn,001,2020-11-20_14h58.20.531,test2,2020.2.5,MacIntel,60,,,0,172,172,172,1
,,,,z,1.08841,,,,,,houses/images/107.jpg,houses/images/14.jpg,174,Reighlyn,001,2020-11-20_14h58.20.531,test2,2020.2.5,MacIntel,60,,,0,173,173,173,1
,,,,m,1.60429,,,,,,houses/images/108.jpg,houses/images/9.jpg,175,Reighlyn,001,2020-11-20_14h58.20.531,test2,2020.2.5,MacIntel,60,,,0,174,174,174,1
,,,,m,1.283235,,,,,,houses/images/109.jpg,houses/images/106.jpg,176,Reighlyn,001,2020-11-20_14h58.20.531,test2,2020.2.5,MacIntel,60,,,0,175,175,175,1
,,,,z,2.059775,,,,,,houses/images/11.jpg,houses/images/268.jpg,177,Reighlyn,001,2020-11-20_14h58.20.531,test2,2020.2.5,MacIntel,60,,,0,176,176,176,1
,,,,z,1.26004,,,,,,houses/images/210.jpg,houses/images/330.jpg,178,Reighlyn,001,2020-11-20_14h58.20.531,test2,2020.2.5,MacIntel,60,,,0,177,177,177,1
,,,,m,0.959875,,,,,,houses/images/111.jpg,houses/images/343.jpg,179,Reighlyn,001,2020-11-20_14h58.20.531,test2,2020.2.5,MacIntel,60,,,0,178,178,178,1
,,,,m,1.05139,,,,,,houses/images/112.jpg,houses/images/225.jpg,180,Reighlyn,001,2020-11-20_14h58.20.531,test2,2020.2.5,MacIntel,60,,,0,179,179,179,1
,,,,m,1.09984,,,,,,houses/images/113.jpg,houses/images/174.jpg,181,Reighlyn,001,2020-11-20_14h58.20.531,test2,2020.2.5,MacIntel,60,,,0,180,180,180,1
,,,,z,1.49927,,,,,,houses/images/114.jpg,houses/images/25.jpg,182,Reighlyn,001,2020-11-20_14h58.20.531,test2,2020.2.5,MacIntel,60,,,0,181,181,181,1
,,,,z,0.99506,,,,,,houses/images/115.jpg,houses/images/100.jpg,183,Reighlyn,001,2020-11-20_14h58.20.531,test2,2020.2.5,MacIntel,60,,,0,182,182,182,1
,,,,m,0.942005,,,,,,houses/images/116.jpg,houses/images/48.jpg,184,Reighlyn,001,2020-11-20_14h58.20.531,test2,2020.2.5,MacIntel,60,,,0,183,183,183,1
,,,,m,1.14927,,,,,,houses/images/117.jpg,houses/images/296.jpg,185,Reighlyn,001,2020-11-20_14h58.20.531,test2,2020.2.5,MacIntel,60,,,0,184,184,184,1
,,,,m,1.418005,,,,,,houses/images/118.jpg,houses/images/15.jpg,186,Reighlyn,001,2020-11-20_14h58.20.531,test2,2020.2.5,MacIntel,60,,,0,185,185,185,1
,,,,m,1.584135,,,,,,houses/images/119.jpg,houses/images/252.jpg,187,Reighlyn,001,2020-11-20_14h58.20.531,test2,2020.2.5,MacIntel,60,,,0,186,186,186,1
,,,,z,1.58064,,,,,,houses/images/12.jpg,houses/images/290.jpg,188,Reighlyn,001,2020-11-20_14h58.20.531,test2,2020.2.5,MacIntel,60,,,0,187,187,187,1
,,,,z,1.157445,,,,,,houses/images/120.jpg,houses/images/236.jpg,189,Reighlyn,001,2020-11-20_14h58.20.531,test2,2020.2.5,MacIntel,60,,,0,188,188,188,1
,,,,z,1.4927,,,,,,houses/images/121.jpg,houses/images/260.jpg,190,Reighlyn,001,2020-11-20_14h58.20.531,test2,2020.2.5,MacIntel,60,,,0,189,189,189,1
,,,,z,1.713275,,,,,,houses/images/122.jpg,houses/images/56.jpg,191,Reighlyn,001,2020-11-20_14h58.20.531,test2,2020.2.5,MacIntel,60,,,0,190,190,190,1
,,,,z,1.56847,,,,,,houses/images/123.jpg,houses/images/336.jpg,192,Reighlyn,001,2020-11-20_14h58.20.531,test2,2020.2.5,MacIntel,60,,,0,191,191,191,1
,,,,m,2.444605,,,,,,houses/images/124.jpg,houses/images/39.jpg,193,Reighlyn,001,2020-11-20_14h58.20.531,test2,2020.2.5,MacIntel,60,,,0,192,192,192,1
,,,,z,2.27119,,,,,,houses/images/225.jpg,houses/images/302.jpg,194,Reighlyn,001,2020-11-20_14h58.20.531,test2,2020.2.5,MacIntel,60,,,0,193,193,193,1
,,,,z,1.427335,,,,,,houses/images/226.jpg,houses/images/207.jpg,195,Reighlyn,001,2020-11-20_14h58.20.531,test2,2020.2.5,MacIntel,60,,,0,194,194,194,1
,,,,z,1.881395,,,,,,houses/images/127.jpg,houses/images/348.jpg,196,Reighlyn,001,2020-11-20_14h58.20.531,test2,2020.2.5,MacIntel,60,,,0,195,195,195,1
,,,,z,1.595135,,,,,,houses/images/128.jpg,houses/images/151.jpg,197,Reighlyn,001,2020-11-20_14h58.20.531,test2,2020.2.5,MacIntel,60,,,0,196,196,196,1
,,,,m,1.37936,,,,,,houses/images/129.jpg,houses/images/315.jpg,198,Reighlyn,001,2020-11-20_14h58.20.531,test2,2020.2.5,MacIntel,60,,,0,197,197,197,1
,,,,z,2.58977,,,,,,houses/images/13.jpg,houses/images/63.jpg,199,Reighlyn,001,2020-11-20_14h58.20.531,test2,2020.2.5,MacIntel,60,,,0,198,198,198,1
,,,,z,1.31228,,,,,,houses/images/307.jpg,houses/images/172.jpg,200,Reighlyn,001,2020-11-20_14h58.20.531,test2,2020.2.5,MacIntel,60,,,0,199,199,199,1
