key_resp.keys,key_resp.rt,key_resp_3.keys,key_resp_3.rt,key_resp_2.keys,key_resp_2.rt,trials.thisRepN,trials.thisTrialN,trials.thisN,trials.thisIndex,trials.ran,image_left,image_right,trial_num,participant,session,date,expName,psychopyVersion,OS,frameRate
space,2.447575,space,0.895955,z,4.989365,0,0,0,0,1,houses/images/0.jpg,houses/images/349.jpg,1,s,001,2020-11-19_22h12.20.498,test2,2020.2.5,Win32,60
,,,,z,2.021705,0,1,1,1,1,houses/images/1.jpg,houses/images/194.jpg,2,s,001,2020-11-19_22h12.20.498,test2,2020.2.5,Win32,60
,,,,z,1.82524,0,2,2,2,1,houses/images/10.jpg,houses/images/159.jpg,3,s,001,2020-11-19_22h12.20.498,test2,2020.2.5,Win32,60
,,,,z,4.28008,0,3,3,3,1,houses/images/100.jpg,houses/images/42.jpg,4,s,001,2020-11-19_22h12.20.498,test2,2020.2.5,Win32,60
,,,,m,7.31603,0,4,4,4,1,houses/images/101.jpg,houses/images/240.jpg,5,s,001,2020-11-19_22h12.20.498,test2,2020.2.5,Win32,60
,,,,m,2.88333,0,5,5,5,1,houses/images/102.jpg,houses/images/201.jpg,6,s,001,2020-11-19_22h12.20.498,test2,2020.2.5,Win32,60
,,,,z,3.165925,0,6,6,6,1,houses/images/103.jpg,houses/images/223.jpg,7,s,001,2020-11-19_22h12.20.498,test2,2020.2.5,Win32,60
,,,,z,4.077235,0,7,7,7,1,houses/images/104.jpg,houses/images/46.jpg,8,s,001,2020-11-19_22h12.20.498,test2,2020.2.5,Win32,60
,,,,z,4.57154,0,8,8,8,1,houses/images/105.jpg,houses/images/109.jpg,9,s,001,2020-11-19_22h12.20.498,test2,2020.2.5,Win32,60
,,,,z,3.81439,0,9,9,9,1,houses/images/106.jpg,houses/images/12.jpg,10,s,001,2020-11-19_22h12.20.498,test2,2020.2.5,Win32,60
,,,,z,2.965895,0,10,10,10,1,houses/images/107.jpg,houses/images/358.jpg,11,s,001,2020-11-19_22h12.20.498,test2,2020.2.5,Win32,60
,,,,z,2.08249,0,11,11,11,1,houses/images/108.jpg,houses/images/197.jpg,12,s,001,2020-11-19_22h12.20.498,test2,2020.2.5,Win32,60
,,,,m,2.3857,0,12,12,12,1,houses/images/109.jpg,houses/images/133.jpg,13,s,001,2020-11-19_22h12.20.498,test2,2020.2.5,Win32,60
,,,,z,1.965915,0,13,13,13,1,houses/images/11.jpg,houses/images/286.jpg,14,s,001,2020-11-19_22h12.20.498,test2,2020.2.5,Win32,60
,,,,z,4.652235,0,14,14,14,1,houses/images/210.jpg,houses/images/33.jpg,15,s,001,2020-11-19_22h12.20.498,test2,2020.2.5,Win32,60
,,,,z,2.43627,0,15,15,15,1,houses/images/111.jpg,houses/images/156.jpg,16,s,001,2020-11-19_22h12.20.498,test2,2020.2.5,Win32,60
,,,,z,4.05059,0,16,16,16,1,houses/images/112.jpg,houses/images/128.jpg,17,s,001,2020-11-19_22h12.20.498,test2,2020.2.5,Win32,60
,,,,m,6.97394,0,17,17,17,1,houses/images/113.jpg,houses/images/306.jpg,18,s,001,2020-11-19_22h12.20.498,test2,2020.2.5,Win32,60
,,,,z,7.89878,0,18,18,18,1,houses/images/114.jpg,houses/images/272.jpg,19,s,001,2020-11-19_22h12.20.498,test2,2020.2.5,Win32,60
,,,,m,2.953525,0,19,19,19,1,houses/images/115.jpg,houses/images/112.jpg,20,s,001,2020-11-19_22h12.20.498,test2,2020.2.5,Win32,60
,,,,z,2.211365,0,20,20,20,1,houses/images/116.jpg,houses/images/101.jpg,21,s,001,2020-11-19_22h12.20.498,test2,2020.2.5,Win32,60
,,,,m,2.901225,0,21,21,21,1,houses/images/117.jpg,houses/images/298.jpg,22,s,001,2020-11-19_22h12.20.498,test2,2020.2.5,Win32,60
,,,,z,5.45363,0,22,22,22,1,houses/images/118.jpg,houses/images/80.jpg,23,s,001,2020-11-19_22h12.20.498,test2,2020.2.5,Win32,60
,,,,m,2.56159,0,23,23,23,1,houses/images/119.jpg,houses/images/329.jpg,24,s,001,2020-11-19_22h12.20.498,test2,2020.2.5,Win32,60
,,,,m,3.09515,0,24,24,24,1,houses/images/12.jpg,houses/images/320.jpg,25,s,001,2020-11-19_22h12.20.498,test2,2020.2.5,Win32,60
,,,,z,6.08552,0,25,25,25,1,houses/images/120.jpg,houses/images/24.jpg,26,s,001,2020-11-19_22h12.20.498,test2,2020.2.5,Win32,60
,,,,m,2.444515,0,26,26,26,1,houses/images/121.jpg,houses/images/341.jpg,27,s,001,2020-11-19_22h12.20.498,test2,2020.2.5,Win32,60
,,,,m,2.10363,0,27,27,27,1,houses/images/122.jpg,houses/images/38.jpg,28,s,001,2020-11-19_22h12.20.498,test2,2020.2.5,Win32,60
,,,,z,1.71142,0,28,28,28,1,houses/images/123.jpg,houses/images/98.jpg,29,s,001,2020-11-19_22h12.20.498,test2,2020.2.5,Win32,60
,,,,z,4.4661,0,29,29,29,1,houses/images/124.jpg,houses/images/213.jpg,30,s,001,2020-11-19_22h12.20.498,test2,2020.2.5,Win32,60
,,,,z,2.495835,0,30,30,30,1,houses/images/225.jpg,houses/images/208.jpg,31,s,001,2020-11-19_22h12.20.498,test2,2020.2.5,Win32,60
,,,,m,11.87065,0,31,31,31,1,houses/images/226.jpg,houses/images/210.jpg,32,s,001,2020-11-19_22h12.20.498,test2,2020.2.5,Win32,60
,,,,z,7.973455,0,32,32,32,1,houses/images/127.jpg,houses/images/90.jpg,33,s,001,2020-11-19_22h12.20.498,test2,2020.2.5,Win32,60
,,,,z,1.753415,0,33,33,33,1,houses/images/128.jpg,houses/images/113.jpg,34,s,001,2020-11-19_22h12.20.498,test2,2020.2.5,Win32,60
,,,,m,3.38006,0,34,34,34,1,houses/images/129.jpg,houses/images/232.jpg,35,s,001,2020-11-19_22h12.20.498,test2,2020.2.5,Win32,60
,,,,m,8.11451,0,35,35,35,1,houses/images/13.jpg,houses/images/359.jpg,36,s,001,2020-11-19_22h12.20.498,test2,2020.2.5,Win32,60
,,,,z,2.83059,0,36,36,36,1,houses/images/130.jpg,houses/images/187.jpg,37,s,001,2020-11-19_22h12.20.498,test2,2020.2.5,Win32,60
,,,,z,4.87754,0,37,37,37,1,houses/images/131.jpg,houses/images/275.jpg,38,s,001,2020-11-19_22h12.20.498,test2,2020.2.5,Win32,60
,,,,z,4.23221,0,38,38,38,1,houses/images/132.jpg,houses/images/162.jpg,39,s,001,2020-11-19_22h12.20.498,test2,2020.2.5,Win32,60
,,,,m,1.537085,0,39,39,39,1,houses/images/133.jpg,houses/images/311.jpg,40,s,001,2020-11-19_22h12.20.498,test2,2020.2.5,Win32,60
,,,,m,4.41016,0,40,40,40,1,houses/images/134.jpg,houses/images/277.jpg,41,s,001,2020-11-19_22h12.20.498,test2,2020.2.5,Win32,60
,,,,m,1.72372,0,41,41,41,1,houses/images/135.jpg,houses/images/71.jpg,42,s,001,2020-11-19_22h12.20.498,test2,2020.2.5,Win32,60
,,,,z,8.740345,0,42,42,42,1,houses/images/236.jpg,houses/images/72.jpg,43,s,001,2020-11-19_22h12.20.498,test2,2020.2.5,Win32,60
,,,,m,5.258345,0,43,43,43,1,houses/images/137.jpg,houses/images/246.jpg,44,s,001,2020-11-19_22h12.20.498,test2,2020.2.5,Win32,60
,,,,z,3.110835,0,44,44,44,1,houses/images/138.jpg,houses/images/174.jpg,45,s,001,2020-11-19_22h12.20.498,test2,2020.2.5,Win32,60
,,,,m,1.67829,0,45,45,45,1,houses/images/239.jpg,houses/images/292.jpg,46,s,001,2020-11-19_22h12.20.498,test2,2020.2.5,Win32,60
,,,,z,3.436945,0,46,46,46,1,houses/images/14.jpg,houses/images/194.jpg,47,s,001,2020-11-19_22h12.20.498,test2,2020.2.5,Win32,60
,,,,m,1.67774,0,47,47,47,1,houses/images/240.jpg,houses/images/180.jpg,48,s,001,2020-11-19_22h12.20.498,test2,2020.2.5,Win32,60
,,,,m,3.32802,0,48,48,48,1,houses/images/141.jpg,houses/images/262.jpg,49,s,001,2020-11-19_22h12.20.498,test2,2020.2.5,Win32,60
,,,,m,2.233865,0,49,49,49,1,houses/images/42.jpg,houses/images/118.jpg,50,s,001,2020-11-19_22h12.20.498,test2,2020.2.5,Win32,60
,,,,m,4.048675,0,50,50,50,1,houses/images/143.jpg,houses/images/316.jpg,51,s,001,2020-11-19_22h12.20.498,test2,2020.2.5,Win32,60
,,,,m,1.99359,0,51,51,51,1,houses/images/144.jpg,houses/images/29.jpg,52,s,001,2020-11-19_22h12.20.498,test2,2020.2.5,Win32,60
,,,,z,1.78298,0,52,52,52,1,houses/images/145.jpg,houses/images/146.jpg,53,s,001,2020-11-19_22h12.20.498,test2,2020.2.5,Win32,60
,,,,m,2.20724,0,53,53,53,1,houses/images/146.jpg,houses/images/342.jpg,54,s,001,2020-11-19_22h12.20.498,test2,2020.2.5,Win32,60
,,,,m,4.667745,0,54,54,54,1,houses/images/147.jpg,houses/images/120.jpg,55,s,001,2020-11-19_22h12.20.498,test2,2020.2.5,Win32,60
,,,,m,5.34031,0,55,55,55,1,houses/images/148.jpg,houses/images/204.jpg,56,s,001,2020-11-19_22h12.20.498,test2,2020.2.5,Win32,60
,,,,m,1.36377,0,56,56,56,1,houses/images/149.jpg,houses/images/292.jpg,57,s,001,2020-11-19_22h12.20.498,test2,2020.2.5,Win32,60
,,,,z,4.943515,0,57,57,57,1,houses/images/15.jpg,houses/images/191.jpg,58,s,001,2020-11-19_22h12.20.498,test2,2020.2.5,Win32,60
,,,,m,2.35292,0,58,58,58,1,houses/images/150.jpg,houses/images/318.jpg,59,s,001,2020-11-19_22h12.20.498,test2,2020.2.5,Win32,60
,,,,m,1.39391,0,59,59,59,1,houses/images/151.jpg,houses/images/255.jpg,60,s,001,2020-11-19_22h12.20.498,test2,2020.2.5,Win32,60
,,,,z,3.40511,0,60,60,60,1,houses/images/152.jpg,houses/images/261.jpg,61,s,001,2020-11-19_22h12.20.498,test2,2020.2.5,Win32,60
,,,,z,1.46147,0,61,61,61,1,houses/images/253.jpg,houses/images/129.jpg,62,s,001,2020-11-19_22h12.20.498,test2,2020.2.5,Win32,60
,,,,m,4.422845,0,62,62,62,1,houses/images/154.jpg,houses/images/36.jpg,63,s,001,2020-11-19_22h12.20.498,test2,2020.2.5,Win32,60
,,,,m,1.39139,0,63,63,63,1,houses/images/155.jpg,houses/images/210.jpg,64,s,001,2020-11-19_22h12.20.498,test2,2020.2.5,Win32,60
,,,,m,1.39912,0,64,64,64,1,houses/images/156.jpg,houses/images/132.jpg,65,s,001,2020-11-19_22h12.20.498,test2,2020.2.5,Win32,60
,,,,m,2.298135,0,65,65,65,1,houses/images/157.jpg,houses/images/70.jpg,66,s,001,2020-11-19_22h12.20.498,test2,2020.2.5,Win32,60
,,,,m,6.238405,0,66,66,66,1,houses/images/158.jpg,houses/images/199.jpg,67,s,001,2020-11-19_22h12.20.498,test2,2020.2.5,Win32,60
,,,,m,2.198185,0,67,67,67,1,houses/images/159.jpg,houses/images/226.jpg,68,s,001,2020-11-19_22h12.20.498,test2,2020.2.5,Win32,60
,,,,m,1.51351,0,68,68,68,1,houses/images/16.jpg,houses/images/50.jpg,69,s,001,2020-11-19_22h12.20.498,test2,2020.2.5,Win32,60
,,,,z,5.41955,0,69,69,69,1,houses/images/160.jpg,houses/images/239.jpg,70,s,001,2020-11-19_22h12.20.498,test2,2020.2.5,Win32,60
,,,,z,1.256025,0,70,70,70,1,houses/images/161.jpg,houses/images/289.jpg,71,s,001,2020-11-19_22h12.20.498,test2,2020.2.5,Win32,60
,,,,z,3.55964,0,71,71,71,1,houses/images/162.jpg,houses/images/325.jpg,72,s,001,2020-11-19_22h12.20.498,test2,2020.2.5,Win32,60
,,,,z,2.148135,0,72,72,72,1,houses/images/163.jpg,houses/images/259.jpg,73,s,001,2020-11-19_22h12.20.498,test2,2020.2.5,Win32,60
,,,,z,6.83757,0,73,73,73,1,houses/images/164.jpg,houses/images/316.jpg,74,s,001,2020-11-19_22h12.20.498,test2,2020.2.5,Win32,60
,,,,m,1.477815,0,74,74,74,1,houses/images/165.jpg,houses/images/311.jpg,75,s,001,2020-11-19_22h12.20.498,test2,2020.2.5,Win32,60
,,,,z,1.792105,0,75,75,75,1,houses/images/166.jpg,houses/images/246.jpg,76,s,001,2020-11-19_22h12.20.498,test2,2020.2.5,Win32,60
,,,,m,1.273845,0,76,76,76,1,houses/images/167.jpg,houses/images/269.jpg,77,s,001,2020-11-19_22h12.20.498,test2,2020.2.5,Win32,60
,,,,m,3.365015,0,77,77,77,1,houses/images/168.jpg,houses/images/360.jpg,78,s,001,2020-11-19_22h12.20.498,test2,2020.2.5,Win32,60
,,,,m,4.74864,0,78,78,78,1,houses/images/169.jpg,houses/images/116.jpg,79,s,001,2020-11-19_22h12.20.498,test2,2020.2.5,Win32,60
,,,,z,1.670995,0,79,79,79,1,houses/images/17.jpg,houses/images/245.jpg,80,s,001,2020-11-19_22h12.20.498,test2,2020.2.5,Win32,60
,,,,m,1.250265,0,80,80,80,1,houses/images/170.jpg,houses/images/152.jpg,81,s,001,2020-11-19_22h12.20.498,test2,2020.2.5,Win32,60
,,,,z,2.05358,0,81,81,81,1,houses/images/171.jpg,houses/images/77.jpg,82,s,001,2020-11-19_22h12.20.498,test2,2020.2.5,Win32,60
,,,,z,2.15515,0,82,82,82,1,houses/images/172.jpg,houses/images/154.jpg,83,s,001,2020-11-19_22h12.20.498,test2,2020.2.5,Win32,60
,,,,m,2.8077,0,83,83,83,1,houses/images/273.jpg,houses/images/210.jpg,84,s,001,2020-11-19_22h12.20.498,test2,2020.2.5,Win32,60
,,,,z,2.158385,0,84,84,84,1,houses/images/174.jpg,houses/images/121.jpg,85,s,001,2020-11-19_22h12.20.498,test2,2020.2.5,Win32,60
,,,,z,5.926115,0,85,85,85,1,houses/images/175.jpg,houses/images/47.jpg,86,s,001,2020-11-19_22h12.20.498,test2,2020.2.5,Win32,60
,,,,m,2.82367,0,86,86,86,1,houses/images/176.jpg,houses/images/328.jpg,87,s,001,2020-11-19_22h12.20.498,test2,2020.2.5,Win32,60
,,,,m,1.71354,0,87,87,87,1,houses/images/177.jpg,houses/images/35.jpg,88,s,001,2020-11-19_22h12.20.498,test2,2020.2.5,Win32,60
,,,,m,2.84802,0,88,88,88,1,houses/images/178.jpg,houses/images/299.jpg,89,s,001,2020-11-19_22h12.20.498,test2,2020.2.5,Win32,60
,,,,m,1.051225,0,89,89,89,1,houses/images/179.jpg,houses/images/283.jpg,90,s,001,2020-11-19_22h12.20.498,test2,2020.2.5,Win32,60
,,,,z,1.29122,0,90,90,90,1,houses/images/18.jpg,houses/images/182.jpg,91,s,001,2020-11-19_22h12.20.498,test2,2020.2.5,Win32,60
,,,,z,1.296655,0,91,91,91,1,houses/images/180.jpg,houses/images/327.jpg,92,s,001,2020-11-19_22h12.20.498,test2,2020.2.5,Win32,60
,,,,z,1.723785,0,92,92,92,1,houses/images/281.jpg,houses/images/334.jpg,93,s,001,2020-11-19_22h12.20.498,test2,2020.2.5,Win32,60
,,,,m,5.331625,0,93,93,93,1,houses/images/182.jpg,houses/images/75.jpg,94,s,001,2020-11-19_22h12.20.498,test2,2020.2.5,Win32,60
,,,,m,3.65173,0,94,94,94,1,houses/images/183.jpg,houses/images/137.jpg,95,s,001,2020-11-19_22h12.20.498,test2,2020.2.5,Win32,60
,,,,m,1.47422,0,95,95,95,1,houses/images/184.jpg,houses/images/344.jpg,96,s,001,2020-11-19_22h12.20.498,test2,2020.2.5,Win32,60
,,,,z,2.18585,0,96,96,96,1,houses/images/185.jpg,houses/images/285.jpg,97,s,001,2020-11-19_22h12.20.498,test2,2020.2.5,Win32,60
,,,,m,2.35722,0,97,97,97,1,houses/images/186.jpg,houses/images/230.jpg,98,s,001,2020-11-19_22h12.20.498,test2,2020.2.5,Win32,60
,,,,m,2.434085,0,98,98,98,1,houses/images/187.jpg,houses/images/3.jpg,99,s,001,2020-11-19_22h12.20.498,test2,2020.2.5,Win32,60
,,,,m,1.5376,0,99,99,99,1,houses/images/188.jpg,houses/images/304.jpg,100,s,001,2020-11-19_22h12.20.498,test2,2020.2.5,Win32,60
,,,,m,0.957515,0,100,100,100,1,houses/images/189.jpg,houses/images/17.jpg,101,s,001,2020-11-19_22h12.20.498,test2,2020.2.5,Win32,60
,,,,m,1.54897,0,101,101,101,1,houses/images/19.jpg,houses/images/351.jpg,102,s,001,2020-11-19_22h12.20.498,test2,2020.2.5,Win32,60
,,,,m,3.92597,0,102,102,102,1,houses/images/190.jpg,houses/images/307.jpg,103,s,001,2020-11-19_22h12.20.498,test2,2020.2.5,Win32,60
,,,,m,5.14624,0,103,103,103,1,houses/images/191.jpg,houses/images/326.jpg,104,s,001,2020-11-19_22h12.20.498,test2,2020.2.5,Win32,60
,,,,z,1.63574,0,104,104,104,1,houses/images/292.jpg,houses/images/240.jpg,105,s,001,2020-11-19_22h12.20.498,test2,2020.2.5,Win32,60
,,,,m,2.18911,0,105,105,105,1,houses/images/193.jpg,houses/images/243.jpg,106,s,001,2020-11-19_22h12.20.498,test2,2020.2.5,Win32,60
,,,,m,1.642305,0,106,106,106,1,houses/images/194.jpg,houses/images/291.jpg,107,s,001,2020-11-19_22h12.20.498,test2,2020.2.5,Win32,60
,,,,m,4.940675,0,107,107,107,1,houses/images/195.jpg,houses/images/361.jpg,108,s,001,2020-11-19_22h12.20.498,test2,2020.2.5,Win32,60
,,,,m,1.206005,0,108,108,108,1,houses/images/196.jpg,houses/images/30.jpg,109,s,001,2020-11-19_22h12.20.498,test2,2020.2.5,Win32,60
,,,,m,2.9202,0,109,109,109,1,houses/images/197.jpg,houses/images/22.jpg,110,s,001,2020-11-19_22h12.20.498,test2,2020.2.5,Win32,60
,,,,m,1.010085,0,110,110,110,1,houses/images/198.jpg,houses/images/250.jpg,111,s,001,2020-11-19_22h12.20.498,test2,2020.2.5,Win32,60
,,,,m,2.42539,0,111,111,111,1,houses/images/199.jpg,houses/images/323.jpg,112,s,001,2020-11-19_22h12.20.498,test2,2020.2.5,Win32,60
,,,,z,1.148765,0,112,112,112,1,houses/images/2.jpg,houses/images/187.jpg,113,s,001,2020-11-19_22h12.20.498,test2,2020.2.5,Win32,60
,,,,m,3.389815,0,113,113,113,1,houses/images/20.jpg,houses/images/100.jpg,114,s,001,2020-11-19_22h12.20.498,test2,2020.2.5,Win32,60
,,,,z,2.37558,0,114,114,114,1,houses/images/200.jpg,houses/images/238.jpg,115,s,001,2020-11-19_22h12.20.498,test2,2020.2.5,Win32,60
,,,,z,1.561035,0,115,115,115,1,houses/images/201.jpg,houses/images/58.jpg,116,s,001,2020-11-19_22h12.20.498,test2,2020.2.5,Win32,60
,,,,z,6.273145,0,116,116,116,1,houses/images/202.jpg,houses/images/205.jpg,117,s,001,2020-11-19_22h12.20.498,test2,2020.2.5,Win32,60
,,,,z,1.259385,0,117,117,117,1,houses/images/203.jpg,houses/images/40.jpg,118,s,001,2020-11-19_22h12.20.498,test2,2020.2.5,Win32,60
,,,,m,1.781075,0,118,118,118,1,houses/images/204.jpg,houses/images/64.jpg,119,s,001,2020-11-19_22h12.20.498,test2,2020.2.5,Win32,60
,,,,z,1.073305,0,119,119,119,1,houses/images/205.jpg,houses/images/155.jpg,120,s,001,2020-11-19_22h12.20.498,test2,2020.2.5,Win32,60
,,,,z,3.9375,0,120,120,120,1,houses/images/206.jpg,houses/images/199.jpg,121,s,001,2020-11-19_22h12.20.498,test2,2020.2.5,Win32,60
,,,,m,1.59336,0,121,121,121,1,houses/images/207.jpg,houses/images/233.jpg,122,s,001,2020-11-19_22h12.20.498,test2,2020.2.5,Win32,60
,,,,m,1.598625,0,122,122,122,1,houses/images/208.jpg,houses/images/8.jpg,123,s,001,2020-11-19_22h12.20.498,test2,2020.2.5,Win32,60
,,,,z,2.338375,0,123,123,123,1,houses/images/209.jpg,houses/images/167.jpg,124,s,001,2020-11-19_22h12.20.498,test2,2020.2.5,Win32,60
,,,,m,1.5765,0,124,124,124,1,houses/images/21.jpg,houses/images/103.jpg,125,s,001,2020-11-19_22h12.20.498,test2,2020.2.5,Win32,60
,,,,z,1.46646,0,125,125,125,1,houses/images/210.jpg,houses/images/104.jpg,126,s,001,2020-11-19_22h12.20.498,test2,2020.2.5,Win32,60
,,,,m,6.124315,0,126,126,126,1,houses/images/211.jpg,houses/images/327.jpg,127,s,001,2020-11-19_22h12.20.498,test2,2020.2.5,Win32,60
,,,,z,1.682305,0,127,127,127,1,houses/images/212.jpg,houses/images/253.jpg,128,s,001,2020-11-19_22h12.20.498,test2,2020.2.5,Win32,60
,,,,m,2.172855,0,128,128,128,1,houses/images/213.jpg,houses/images/26.jpg,129,s,001,2020-11-19_22h12.20.498,test2,2020.2.5,Win32,60
,,,,m,3.132025,0,129,129,129,1,houses/images/214.jpg,houses/images/198.jpg,130,s,001,2020-11-19_22h12.20.498,test2,2020.2.5,Win32,60
,,,,z,1.73298,0,130,130,130,1,houses/images/215.jpg,houses/images/4.jpg,131,s,001,2020-11-19_22h12.20.498,test2,2020.2.5,Win32,60
,,,,m,1.97181,0,131,131,131,1,houses/images/316.jpg,houses/images/62.jpg,132,s,001,2020-11-19_22h12.20.498,test2,2020.2.5,Win32,60
,,,,m,1.6924,0,132,132,132,1,houses/images/217.jpg,houses/images/114.jpg,133,s,001,2020-11-19_22h12.20.498,test2,2020.2.5,Win32,60
,,,,m,6.02638,0,133,133,133,1,houses/images/318.jpg,houses/images/308.jpg,134,s,001,2020-11-19_22h12.20.498,test2,2020.2.5,Win32,60
,,,,m,5.270105,0,134,134,134,1,houses/images/219.jpg,houses/images/254.jpg,135,s,001,2020-11-19_22h12.20.498,test2,2020.2.5,Win32,60
,,,,z,1.767045,0,135,135,135,1,houses/images/22.jpg,houses/images/170.jpg,136,s,001,2020-11-19_22h12.20.498,test2,2020.2.5,Win32,60
,,,,m,1.632205,0,136,136,136,1,houses/images/220.jpg,houses/images/179.jpg,137,s,001,2020-11-19_22h12.20.498,test2,2020.2.5,Win32,60
,,,,m,1.90256,0,137,137,137,1,houses/images/221.jpg,houses/images/238.jpg,138,s,001,2020-11-19_22h12.20.498,test2,2020.2.5,Win32,60
,,,,m,4.03546,0,138,138,138,1,houses/images/222.jpg,houses/images/256.jpg,139,s,001,2020-11-19_22h12.20.498,test2,2020.2.5,Win32,60
,,,,z,1.139145,0,139,139,139,1,houses/images/223.jpg,houses/images/322.jpg,140,s,001,2020-11-19_22h12.20.498,test2,2020.2.5,Win32,60
,,,,z,1.103155,0,140,140,140,1,houses/images/224.jpg,houses/images/209.jpg,141,s,001,2020-11-19_22h12.20.498,test2,2020.2.5,Win32,60
,,,,z,1.31009,0,141,141,141,1,houses/images/225.jpg,houses/images/219.jpg,142,s,001,2020-11-19_22h12.20.498,test2,2020.2.5,Win32,60
,,,,z,2.649615,0,142,142,142,1,houses/images/226.jpg,houses/images/79.jpg,143,s,001,2020-11-19_22h12.20.498,test2,2020.2.5,Win32,60
,,,,z,3.21673,0,143,143,143,1,houses/images/227.jpg,houses/images/279.jpg,144,s,001,2020-11-19_22h12.20.498,test2,2020.2.5,Win32,60
,,,,z,1.613635,0,144,144,144,1,houses/images/228.jpg,houses/images/111.jpg,145,s,001,2020-11-19_22h12.20.498,test2,2020.2.5,Win32,60
,,,,z,2.859795,0,145,145,145,1,houses/images/229.jpg,houses/images/257.jpg,146,s,001,2020-11-19_22h12.20.498,test2,2020.2.5,Win32,60
,,,,m,1.902135,0,146,146,146,1,houses/images/23.jpg,houses/images/318.jpg,147,s,001,2020-11-19_22h12.20.498,test2,2020.2.5,Win32,60
,,,,m,1.69375,0,147,147,147,1,houses/images/230.jpg,houses/images/312.jpg,148,s,001,2020-11-19_22h12.20.498,test2,2020.2.5,Win32,60
,,,,z,6.573345,0,148,148,148,1,houses/images/231.jpg,houses/images/253.jpg,149,s,001,2020-11-19_22h12.20.498,test2,2020.2.5,Win32,60
,,,,z,1.49199,0,149,149,149,1,houses/images/232.jpg,houses/images/236.jpg,150,s,001,2020-11-19_22h12.20.498,test2,2020.2.5,Win32,60
,,,,z,0.96922,0,150,150,150,1,houses/images/233.jpg,houses/images/66.jpg,151,s,001,2020-11-19_22h12.20.498,test2,2020.2.5,Win32,60
,,,,m,3.616585,0,151,151,151,1,houses/images/234.jpg,houses/images/138.jpg,152,s,001,2020-11-19_22h12.20.498,test2,2020.2.5,Win32,60
,,,,z,3.398795,0,152,152,152,1,houses/images/235.jpg,houses/images/124.jpg,153,s,001,2020-11-19_22h12.20.498,test2,2020.2.5,Win32,60
,,,,m,5.283175,0,153,153,153,1,houses/images/236.jpg,houses/images/160.jpg,154,s,001,2020-11-19_22h12.20.498,test2,2020.2.5,Win32,60
,,,,m,1.32432,0,154,154,154,1,houses/images/237.jpg,houses/images/314.jpg,155,s,001,2020-11-19_22h12.20.498,test2,2020.2.5,Win32,60
,,,,m,3.925115,0,155,155,155,1,houses/images/238.jpg,houses/images/145.jpg,156,s,001,2020-11-19_22h12.20.498,test2,2020.2.5,Win32,60
,,,,m,4.33223,0,156,156,156,1,houses/images/239.jpg,houses/images/195.jpg,157,s,001,2020-11-19_22h12.20.498,test2,2020.2.5,Win32,60
,,,,m,1.847895,0,157,157,157,1,houses/images/24.jpg,houses/images/0.jpg,158,s,001,2020-11-19_22h12.20.498,test2,2020.2.5,Win32,60
,,,,m,3.357735,0,158,158,158,1,houses/images/240.jpg,houses/images/81.jpg,159,s,001,2020-11-19_22h12.20.498,test2,2020.2.5,Win32,60
,,,,m,1.151065,0,159,159,159,1,houses/images/241.jpg,houses/images/226.jpg,160,s,001,2020-11-19_22h12.20.498,test2,2020.2.5,Win32,60
,,,,m,1.224925,0,160,160,160,1,houses/images/342.jpg,houses/images/319.jpg,161,s,001,2020-11-19_22h12.20.498,test2,2020.2.5,Win32,60
,,,,m,7.775205,0,161,161,161,1,houses/images/243.jpg,houses/images/23.jpg,162,s,001,2020-11-19_22h12.20.498,test2,2020.2.5,Win32,60
,,,,m,2.89229,0,162,162,162,1,houses/images/244.jpg,houses/images/146.jpg,163,s,001,2020-11-19_22h12.20.498,test2,2020.2.5,Win32,60
,,,,m,3.430275,0,163,163,163,1,houses/images/245.jpg,houses/images/28.jpg,164,s,001,2020-11-19_22h12.20.498,test2,2020.2.5,Win32,60
,,,,m,1.09395,0,164,164,164,1,houses/images/246.jpg,houses/images/157.jpg,165,s,001,2020-11-19_22h12.20.498,test2,2020.2.5,Win32,60
,,,,z,1.12657,0,165,165,165,1,houses/images/247.jpg,houses/images/2.jpg,166,s,001,2020-11-19_22h12.20.498,test2,2020.2.5,Win32,60
,,,,m,2.604995,0,166,166,166,1,houses/images/248.jpg,houses/images/87.jpg,167,s,001,2020-11-19_22h12.20.498,test2,2020.2.5,Win32,60
,,,,m,2.131805,0,167,167,167,1,houses/images/249.jpg,houses/images/270.jpg,168,s,001,2020-11-19_22h12.20.498,test2,2020.2.5,Win32,60
,,,,z,3.602625,0,168,168,168,1,houses/images/25.jpg,houses/images/67.jpg,169,s,001,2020-11-19_22h12.20.498,test2,2020.2.5,Win32,60
,,,,z,1.51021,0,169,169,169,1,houses/images/250.jpg,houses/images/234.jpg,170,s,001,2020-11-19_22h12.20.498,test2,2020.2.5,Win32,60
,,,,m,1.82093,0,170,170,170,1,houses/images/251.jpg,houses/images/16.jpg,171,s,001,2020-11-19_22h12.20.498,test2,2020.2.5,Win32,60
,,,,z,4.01951,0,171,171,171,1,houses/images/252.jpg,houses/images/12.jpg,172,s,001,2020-11-19_22h12.20.498,test2,2020.2.5,Win32,60
,,,,m,1.02487,0,172,172,172,1,houses/images/253.jpg,houses/images/185.jpg,173,s,001,2020-11-19_22h12.20.498,test2,2020.2.5,Win32,60
,,,,m,1.22698,0,173,173,173,1,houses/images/254.jpg,houses/images/39.jpg,174,s,001,2020-11-19_22h12.20.498,test2,2020.2.5,Win32,60
,,,,z,4.330425,0,174,174,174,1,houses/images/255.jpg,houses/images/237.jpg,175,s,001,2020-11-19_22h12.20.498,test2,2020.2.5,Win32,60
,,,,z,1.51329,0,175,175,175,1,houses/images/256.jpg,houses/images/356.jpg,176,s,001,2020-11-19_22h12.20.498,test2,2020.2.5,Win32,60
,,,,m,1.498675,0,176,176,176,1,houses/images/257.jpg,houses/images/107.jpg,177,s,001,2020-11-19_22h12.20.498,test2,2020.2.5,Win32,60
,,,,m,3.766365,0,177,177,177,1,houses/images/258.jpg,houses/images/84.jpg,178,s,001,2020-11-19_22h12.20.498,test2,2020.2.5,Win32,60
,,,,m,3.9064,0,178,178,178,1,houses/images/259.jpg,houses/images/119.jpg,179,s,001,2020-11-19_22h12.20.498,test2,2020.2.5,Win32,60
,,,,m,2.545845,0,179,179,179,1,houses/images/26.jpg,houses/images/227.jpg,180,s,001,2020-11-19_22h12.20.498,test2,2020.2.5,Win32,60
,,,,z,1.858325,0,180,180,180,1,houses/images/260.jpg,houses/images/238.jpg,181,s,001,2020-11-19_22h12.20.498,test2,2020.2.5,Win32,60
,,,,z,6.047395,0,181,181,181,1,houses/images/261.jpg,houses/images/337.jpg,182,s,001,2020-11-19_22h12.20.498,test2,2020.2.5,Win32,60
,,,,z,1.96585,0,182,182,182,1,houses/images/262.jpg,houses/images/214.jpg,183,s,001,2020-11-19_22h12.20.498,test2,2020.2.5,Win32,60
,,,,z,1.565325,0,183,183,183,1,houses/images/263.jpg,houses/images/239.jpg,184,s,001,2020-11-19_22h12.20.498,test2,2020.2.5,Win32,60
,,,,m,2.2202,0,184,184,184,1,houses/images/264.jpg,houses/images/149.jpg,185,s,001,2020-11-19_22h12.20.498,test2,2020.2.5,Win32,60
,,,,m,1.343175,0,185,185,185,1,houses/images/265.jpg,houses/images/68.jpg,186,s,001,2020-11-19_22h12.20.498,test2,2020.2.5,Win32,60
,,,,m,1.61979,0,186,186,186,1,houses/images/266.jpg,houses/images/271.jpg,187,s,001,2020-11-19_22h12.20.498,test2,2020.2.5,Win32,60
,,,,m,1.813545,0,187,187,187,1,houses/images/267.jpg,houses/images/87.jpg,188,s,001,2020-11-19_22h12.20.498,test2,2020.2.5,Win32,60
,,,,z,1.65359,0,188,188,188,1,houses/images/268.jpg,houses/images/348.jpg,189,s,001,2020-11-19_22h12.20.498,test2,2020.2.5,Win32,60
,,,,m,1.12756,0,189,189,189,1,houses/images/269.jpg,houses/images/228.jpg,190,s,001,2020-11-19_22h12.20.498,test2,2020.2.5,Win32,60
,,,,m,2.60475,0,190,190,190,1,houses/images/27.jpg,houses/images/317.jpg,191,s,001,2020-11-19_22h12.20.498,test2,2020.2.5,Win32,60
,,,,m,0.253015,0,191,191,191,1,houses/images/270.jpg,houses/images/10.jpg,192,s,001,2020-11-19_22h12.20.498,test2,2020.2.5,Win32,60
,,,,z,2.96465,0,192,192,192,1,houses/images/271.jpg,houses/images/222.jpg,193,s,001,2020-11-19_22h12.20.498,test2,2020.2.5,Win32,60
,,,,m,6.060415,0,193,193,193,1,houses/images/272.jpg,houses/images/314.jpg,194,s,001,2020-11-19_22h12.20.498,test2,2020.2.5,Win32,60
,,,,z,4.42653,0,194,194,194,1,houses/images/273.jpg,houses/images/28.jpg,195,s,001,2020-11-19_22h12.20.498,test2,2020.2.5,Win32,60
,,,,z,2.345285,0,195,195,195,1,houses/images/174.jpg,houses/images/294.jpg,196,s,001,2020-11-19_22h12.20.498,test2,2020.2.5,Win32,60
,,,,z,2.819465,0,196,196,196,1,houses/images/275.jpg,houses/images/60.jpg,197,s,001,2020-11-19_22h12.20.498,test2,2020.2.5,Win32,60
,,,,z,1.627395,0,197,197,197,1,houses/images/276.jpg,houses/images/144.jpg,198,s,001,2020-11-19_22h12.20.498,test2,2020.2.5,Win32,60
,,,,m,3.336855,0,198,198,198,1,houses/images/277.jpg,houses/images/168.jpg,199,s,001,2020-11-19_22h12.20.498,test2,2020.2.5,Win32,60
,,,,z,1.416035,0,199,199,199,1,houses/images/278.jpg,houses/images/206.jpg,200,s,001,2020-11-19_22h12.20.498,test2,2020.2.5,Win32,60
,,,,z,3.16505,0,200,200,200,1,houses/images/279.jpg,houses/images/91.jpg,201,s,001,2020-11-19_22h12.20.498,test2,2020.2.5,Win32,60
,,,,z,4.467925,0,201,201,201,1,houses/images/28.jpg,houses/images/49.jpg,202,s,001,2020-11-19_22h12.20.498,test2,2020.2.5,Win32,60
,,,,z,1.70813,0,202,202,202,1,houses/images/280.jpg,houses/images/163.jpg,203,s,001,2020-11-19_22h12.20.498,test2,2020.2.5,Win32,60
,,,,z,1.559205,0,203,203,203,1,houses/images/281.jpg,houses/images/176.jpg,204,s,001,2020-11-19_22h12.20.498,test2,2020.2.5,Win32,60
,,,,m,1.51774,0,204,204,204,1,houses/images/282.jpg,houses/images/263.jpg,205,s,001,2020-11-19_22h12.20.498,test2,2020.2.5,Win32,60
,,,,z,4.702925,0,205,205,205,1,houses/images/283.jpg,houses/images/303.jpg,206,s,001,2020-11-19_22h12.20.498,test2,2020.2.5,Win32,60
,,,,z,1.49779,0,206,206,206,1,houses/images/284.jpg,houses/images/184.jpg,207,s,001,2020-11-19_22h12.20.498,test2,2020.2.5,Win32,60
,,,,m,3.54564,0,207,207,207,1,houses/images/285.jpg,houses/images/264.jpg,208,s,001,2020-11-19_22h12.20.498,test2,2020.2.5,Win32,60
,,,,m,6.30268,0,208,208,208,1,houses/images/286.jpg,houses/images/89.jpg,209,s,001,2020-11-19_22h12.20.498,test2,2020.2.5,Win32,60
,,,,m,1.090725,0,209,209,209,1,houses/images/187.jpg,houses/images/350.jpg,210,s,001,2020-11-19_22h12.20.498,test2,2020.2.5,Win32,60
,,,,z,6.36855,0,210,210,210,1,houses/images/288.jpg,houses/images/267.jpg,211,s,001,2020-11-19_22h12.20.498,test2,2020.2.5,Win32,60
,,,,m,2.070055,0,211,211,211,1,houses/images/289.jpg,houses/images/332.jpg,212,s,001,2020-11-19_22h12.20.498,test2,2020.2.5,Win32,60
,,,,z,2.66646,0,212,212,212,1,houses/images/29.jpg,houses/images/61.jpg,213,s,001,2020-11-19_22h12.20.498,test2,2020.2.5,Win32,60
,,,,m,1.266635,0,213,213,213,1,houses/images/290.jpg,houses/images/102.jpg,214,s,001,2020-11-19_22h12.20.498,test2,2020.2.5,Win32,60
,,,,z,1.158275,0,214,214,214,1,houses/images/291.jpg,houses/images/220.jpg,215,s,001,2020-11-19_22h12.20.498,test2,2020.2.5,Win32,60
,,,,z,4.61196,0,215,215,215,1,houses/images/292.jpg,houses/images/121.jpg,216,s,001,2020-11-19_22h12.20.498,test2,2020.2.5,Win32,60
,,,,z,4.05348,0,216,216,216,1,houses/images/293.jpg,houses/images/25.jpg,217,s,001,2020-11-19_22h12.20.498,test2,2020.2.5,Win32,60
,,,,m,1.08551,0,217,217,217,1,houses/images/294.jpg,houses/images/284.jpg,218,s,001,2020-11-19_22h12.20.498,test2,2020.2.5,Win32,60
,,,,m,2.15501,0,218,218,218,1,houses/images/295.jpg,houses/images/273.jpg,219,s,001,2020-11-19_22h12.20.498,test2,2020.2.5,Win32,60
,,,,m,12.27868,0,219,219,219,1,houses/images/296.jpg,houses/images/122.jpg,220,s,001,2020-11-19_22h12.20.498,test2,2020.2.5,Win32,60
,,,,z,1.37791,0,220,220,220,1,houses/images/297.jpg,houses/images/217.jpg,221,s,001,2020-11-19_22h12.20.498,test2,2020.2.5,Win32,60
,,,,z,2.3889,0,221,221,221,1,houses/images/298.jpg,houses/images/178.jpg,222,s,001,2020-11-19_22h12.20.498,test2,2020.2.5,Win32,60
,,,,z,2.615185,0,222,222,222,1,houses/images/299.jpg,houses/images/43.jpg,223,s,001,2020-11-19_22h12.20.498,test2,2020.2.5,Win32,60
,,,,m,2.11955,0,223,223,223,1,houses/images/3.jpg,houses/images/229.jpg,224,s,001,2020-11-19_22h12.20.498,test2,2020.2.5,Win32,60
,,,,z,4.039945,0,224,224,224,1,houses/images/30.jpg,houses/images/177.jpg,225,s,001,2020-11-19_22h12.20.498,test2,2020.2.5,Win32,60
,,,,z,0.823255,0,225,225,225,1,houses/images/300.jpg,houses/images/342.jpg,226,s,001,2020-11-19_22h12.20.498,test2,2020.2.5,Win32,60
,,,,z,1.497545,0,226,226,226,1,houses/images/201.jpg,houses/images/57.jpg,227,s,001,2020-11-19_22h12.20.498,test2,2020.2.5,Win32,60
,,,,z,1.006695,0,227,227,227,1,houses/images/302.jpg,houses/images/186.jpg,228,s,001,2020-11-19_22h12.20.498,test2,2020.2.5,Win32,60
,,,,z,2.895685,0,228,228,228,1,houses/images/303.jpg,houses/images/131.jpg,229,s,001,2020-11-19_22h12.20.498,test2,2020.2.5,Win32,60
,,,,z,2.45208,0,229,229,229,1,houses/images/304.jpg,houses/images/183.jpg,230,s,001,2020-11-19_22h12.20.498,test2,2020.2.5,Win32,60
,,,,m,1.19064,0,230,230,230,1,houses/images/305.jpg,houses/images/200.jpg,231,s,001,2020-11-19_22h12.20.498,test2,2020.2.5,Win32,60
,,,,m,2.264815,0,231,231,231,1,houses/images/306.jpg,houses/images/94.jpg,232,s,001,2020-11-19_22h12.20.498,test2,2020.2.5,Win32,60
,,,,m,4.1889,0,232,232,232,1,houses/images/307.jpg,houses/images/96.jpg,233,s,001,2020-11-19_22h12.20.498,test2,2020.2.5,Win32,60
,,,,z,2.69019,0,233,233,233,1,houses/images/308.jpg,houses/images/76.jpg,234,s,001,2020-11-19_22h12.20.498,test2,2020.2.5,Win32,60
,,,,m,1.71147,0,234,234,234,1,houses/images/309.jpg,houses/images/78.jpg,235,s,001,2020-11-19_22h12.20.498,test2,2020.2.5,Win32,60
,,,,z,1.90656,0,235,235,235,1,houses/images/31.jpg,houses/images/76.jpg,236,s,001,2020-11-19_22h12.20.498,test2,2020.2.5,Win32,60
,,,,m,2.5704,0,236,236,236,1,houses/images/310.jpg,houses/images/128.jpg,237,s,001,2020-11-19_22h12.20.498,test2,2020.2.5,Win32,60
,,,,z,2.594145,0,237,237,237,1,houses/images/311.jpg,houses/images/190.jpg,238,s,001,2020-11-19_22h12.20.498,test2,2020.2.5,Win32,60
,,,,z,5.989065,0,238,238,238,1,houses/images/312.jpg,houses/images/5.jpg,239,s,001,2020-11-19_22h12.20.498,test2,2020.2.5,Win32,60
,,,,m,1.312135,0,239,239,239,1,houses/images/313.jpg,houses/images/188.jpg,240,s,001,2020-11-19_22h12.20.498,test2,2020.2.5,Win32,60
,,,,z,0.86127,0,240,240,240,1,houses/images/314.jpg,houses/images/342.jpg,241,s,001,2020-11-19_22h12.20.498,test2,2020.2.5,Win32,60
,,,,z,1.38072,0,241,241,241,1,houses/images/315.jpg,houses/images/288.jpg,242,s,001,2020-11-19_22h12.20.498,test2,2020.2.5,Win32,60
,,,,m,1.83033,0,242,242,242,1,houses/images/316.jpg,houses/images/321.jpg,243,s,001,2020-11-19_22h12.20.498,test2,2020.2.5,Win32,60
,,,,m,2.3763,0,243,243,243,1,houses/images/317.jpg,houses/images/82.jpg,244,s,001,2020-11-19_22h12.20.498,test2,2020.2.5,Win32,60
,,,,z,0.771165,0,244,244,244,1,houses/images/318.jpg,houses/images/169.jpg,245,s,001,2020-11-19_22h12.20.498,test2,2020.2.5,Win32,60
,,,,m,1.134935,0,245,245,245,1,houses/images/319.jpg,houses/images/224.jpg,246,s,001,2020-11-19_22h12.20.498,test2,2020.2.5,Win32,60
,,,,z,2.18788,0,246,246,246,1,houses/images/32.jpg,houses/images/175.jpg,247,s,001,2020-11-19_22h12.20.498,test2,2020.2.5,Win32,60
,,,,m,1.907015,0,247,247,247,1,houses/images/320.jpg,houses/images/247.jpg,248,s,001,2020-11-19_22h12.20.498,test2,2020.2.5,Win32,60
,,,,m,1.457415,0,248,248,248,1,houses/images/321.jpg,houses/images/97.jpg,249,s,001,2020-11-19_22h12.20.498,test2,2020.2.5,Win32,60
,,,,m,4.9219,0,249,249,249,1,houses/images/322.jpg,houses/images/74.jpg,250,s,001,2020-11-19_22h12.20.498,test2,2020.2.5,Win32,60
,,,,m,1.29786,0,250,250,250,1,houses/images/323.jpg,houses/images/148.jpg,251,s,001,2020-11-19_22h12.20.498,test2,2020.2.5,Win32,60
,,,,z,1.99433,0,251,251,251,1,houses/images/324.jpg,houses/images/313.jpg,252,s,001,2020-11-19_22h12.20.498,test2,2020.2.5,Win32,60
,,,,z,1.468445,0,252,252,252,1,houses/images/325.jpg,houses/images/11.jpg,253,s,001,2020-11-19_22h12.20.498,test2,2020.2.5,Win32,60
,,,,z,1.281895,0,253,253,253,1,houses/images/326.jpg,houses/images/21.jpg,254,s,001,2020-11-19_22h12.20.498,test2,2020.2.5,Win32,60
,,,,m,3.01514,0,254,254,254,1,houses/images/327.jpg,houses/images/281.jpg,255,s,001,2020-11-19_22h12.20.498,test2,2020.2.5,Win32,60
,,,,m,1.53775,0,255,255,255,1,houses/images/328.jpg,houses/images/172.jpg,256,s,001,2020-11-19_22h12.20.498,test2,2020.2.5,Win32,60
,,,,m,0.9305,0,256,256,256,1,houses/images/329.jpg,houses/images/273.jpg,257,s,001,2020-11-19_22h12.20.498,test2,2020.2.5,Win32,60
,,,,m,2.74947,0,257,257,257,1,houses/images/33.jpg,houses/images/239.jpg,258,s,001,2020-11-19_22h12.20.498,test2,2020.2.5,Win32,60
,,,,z,1.71544,0,258,258,258,1,houses/images/330.jpg,houses/images/333.jpg,259,s,001,2020-11-19_22h12.20.498,test2,2020.2.5,Win32,60
,,,,z,1.273535,0,259,259,259,1,houses/images/331.jpg,houses/images/361.jpg,260,s,001,2020-11-19_22h12.20.498,test2,2020.2.5,Win32,60
,,,,z,1.66019,0,260,260,260,1,houses/images/332.jpg,houses/images/91.jpg,261,s,001,2020-11-19_22h12.20.498,test2,2020.2.5,Win32,60
,,,,z,2.254275,0,261,261,261,1,houses/images/333.jpg,houses/images/158.jpg,262,s,001,2020-11-19_22h12.20.498,test2,2020.2.5,Win32,60
,,,,m,4.877905,0,262,262,262,1,houses/images/334.jpg,houses/images/10.jpg,263,s,001,2020-11-19_22h12.20.498,test2,2020.2.5,Win32,60
,,,,m,2.25498,0,263,263,263,1,houses/images/335.jpg,houses/images/331.jpg,264,s,001,2020-11-19_22h12.20.498,test2,2020.2.5,Win32,60
,,,,m,1.75444,0,264,264,264,1,houses/images/336.jpg,houses/images/171.jpg,265,s,001,2020-11-19_22h12.20.498,test2,2020.2.5,Win32,60
,,,,m,1.54759,0,265,265,265,1,houses/images/337.jpg,houses/images/226.jpg,266,s,001,2020-11-19_22h12.20.498,test2,2020.2.5,Win32,60
,,,,m,1.757505,0,266,266,266,1,houses/images/238.jpg,houses/images/214.jpg,267,s,001,2020-11-19_22h12.20.498,test2,2020.2.5,Win32,60
,,,,m,6.032625,0,267,267,267,1,houses/images/239.jpg,houses/images/130.jpg,268,s,001,2020-11-19_22h12.20.498,test2,2020.2.5,Win32,60
,,,,z,1.98489,0,268,268,268,1,houses/images/34.jpg,houses/images/85.jpg,269,s,001,2020-11-19_22h12.20.498,test2,2020.2.5,Win32,60
,,,,z,2.693235,0,269,269,269,1,houses/images/340.jpg,houses/images/248.jpg,270,s,001,2020-11-19_22h12.20.498,test2,2020.2.5,Win32,60
,,,,z,2.13238,0,270,270,270,1,houses/images/341.jpg,houses/images/215.jpg,271,s,001,2020-11-19_22h12.20.498,test2,2020.2.5,Win32,60
,,,,z,1.412265,0,271,271,271,1,houses/images/342.jpg,houses/images/155.jpg,272,s,001,2020-11-19_22h12.20.498,test2,2020.2.5,Win32,60
,,,,m,2.6871,0,272,272,272,1,houses/images/343.jpg,houses/images/193.jpg,273,s,001,2020-11-19_22h12.20.498,test2,2020.2.5,Win32,60
,,,,m,1.7688,0,273,273,273,1,houses/images/344.jpg,houses/images/324.jpg,274,s,001,2020-11-19_22h12.20.498,test2,2020.2.5,Win32,60
,,,,m,1.24945,0,274,274,274,1,houses/images/345.jpg,houses/images/86.jpg,275,s,001,2020-11-19_22h12.20.498,test2,2020.2.5,Win32,60
,,,,z,2.263505,0,275,275,275,1,houses/images/246.jpg,houses/images/295.jpg,276,s,001,2020-11-19_22h12.20.498,test2,2020.2.5,Win32,60
,,,,m,1.818475,0,276,276,276,1,houses/images/347.jpg,houses/images/292.jpg,277,s,001,2020-11-19_22h12.20.498,test2,2020.2.5,Win32,60
,,,,m,2.96083,0,277,277,277,1,houses/images/348.jpg,houses/images/55.jpg,278,s,001,2020-11-19_22h12.20.498,test2,2020.2.5,Win32,60
,,,,m,1.801935,0,278,278,278,1,houses/images/349.jpg,houses/images/1.jpg,279,s,001,2020-11-19_22h12.20.498,test2,2020.2.5,Win32,60
,,,,z,1.30843,0,279,279,279,1,houses/images/35.jpg,houses/images/73.jpg,280,s,001,2020-11-19_22h12.20.498,test2,2020.2.5,Win32,60
,,,,m,1.01976,0,280,280,280,1,houses/images/350.jpg,houses/images/44.jpg,281,s,001,2020-11-19_22h12.20.498,test2,2020.2.5,Win32,60
,,,,z,1.228005,0,281,281,281,1,houses/images/351.jpg,houses/images/6.jpg,282,s,001,2020-11-19_22h12.20.498,test2,2020.2.5,Win32,60
,,,,m,2.50269,0,282,282,282,1,houses/images/352.jpg,houses/images/20.jpg,283,s,001,2020-11-19_22h12.20.498,test2,2020.2.5,Win32,60
,,,,z,3.60687,0,283,283,283,1,houses/images/353.jpg,houses/images/18.jpg,284,s,001,2020-11-19_22h12.20.498,test2,2020.2.5,Win32,60
,,,,z,1.47058,0,284,284,284,1,houses/images/354.jpg,houses/images/347.jpg,285,s,001,2020-11-19_22h12.20.498,test2,2020.2.5,Win32,60
,,,,z,0.8221,0,285,285,285,1,houses/images/355.jpg,houses/images/27.jpg,286,s,001,2020-11-19_22h12.20.498,test2,2020.2.5,Win32,60
,,,,m,1.06827,0,286,286,286,1,houses/images/356.jpg,houses/images/276.jpg,287,s,001,2020-11-19_22h12.20.498,test2,2020.2.5,Win32,60
,,,,z,1.36244,0,287,287,287,1,houses/images/357.jpg,houses/images/345.jpg,288,s,001,2020-11-19_22h12.20.498,test2,2020.2.5,Win32,60
,,,,z,1.678895,0,288,288,288,1,houses/images/358.jpg,houses/images/235.jpg,289,s,001,2020-11-19_22h12.20.498,test2,2020.2.5,Win32,60
,,,,m,2.467745,0,289,289,289,1,houses/images/359.jpg,houses/images/115.jpg,290,s,001,2020-11-19_22h12.20.498,test2,2020.2.5,Win32,60
,,,,z,2.114945,0,290,290,290,1,houses/images/36.jpg,houses/images/310.jpg,291,s,001,2020-11-19_22h12.20.498,test2,2020.2.5,Win32,60
,,,,z,1.65018,0,291,291,291,1,houses/images/360.jpg,houses/images/93.jpg,292,s,001,2020-11-19_22h12.20.498,test2,2020.2.5,Win32,60
,,,,m,1.847165,0,292,292,292,1,houses/images/361.jpg,houses/images/212.jpg,293,s,001,2020-11-19_22h12.20.498,test2,2020.2.5,Win32,60
,,,,m,0.798165,0,293,293,293,1,houses/images/62.jpg,houses/images/51.jpg,294,s,001,2020-11-19_22h12.20.498,test2,2020.2.5,Win32,60
,,,,z,0.85184,0,294,294,294,1,houses/images/37.jpg,houses/images/108.jpg,295,s,001,2020-11-19_22h12.20.498,test2,2020.2.5,Win32,60
,,,,m,0.80856,0,295,295,295,1,houses/images/38.jpg,houses/images/127.jpg,296,s,001,2020-11-19_22h12.20.498,test2,2020.2.5,Win32,60
,,,,z,1.847805,0,296,296,296,1,houses/images/39.jpg,houses/images/52.jpg,297,s,001,2020-11-19_22h12.20.498,test2,2020.2.5,Win32,60
,,,,z,0.80264,0,297,297,297,1,houses/images/4.jpg,houses/images/318.jpg,298,s,001,2020-11-19_22h12.20.498,test2,2020.2.5,Win32,60
,,,,m,1.672385,0,298,298,298,1,houses/images/40.jpg,houses/images/201.jpg,299,s,001,2020-11-19_22h12.20.498,test2,2020.2.5,Win32,60
,,,,z,0.693695,0,299,299,299,1,houses/images/41.jpg,houses/images/7.jpg,300,s,001,2020-11-19_22h12.20.498,test2,2020.2.5,Win32,60
,,,,z,2.43121,0,300,300,300,1,houses/images/42.jpg,houses/images/340.jpg,301,s,001,2020-11-19_22h12.20.498,test2,2020.2.5,Win32,60
,,,,m,1.206,0,301,301,301,1,houses/images/43.jpg,houses/images/150.jpg,302,s,001,2020-11-19_22h12.20.498,test2,2020.2.5,Win32,60
,,,,m,1.8249,0,302,302,302,1,houses/images/44.jpg,houses/images/246.jpg,303,s,001,2020-11-19_22h12.20.498,test2,2020.2.5,Win32,60
,,,,z,4.483085,0,303,303,303,1,houses/images/145.jpg,houses/images/18.jpg,304,s,001,2020-11-19_22h12.20.498,test2,2020.2.5,Win32,60
,,,,m,5.093425,0,304,304,304,1,houses/images/46.jpg,houses/images/211.jpg,305,s,001,2020-11-19_22h12.20.498,test2,2020.2.5,Win32,60
,,,,m,2.02359,0,305,305,305,1,houses/images/47.jpg,houses/images/282.jpg,306,s,001,2020-11-19_22h12.20.498,test2,2020.2.5,Win32,60
,,,,m,1.91879,0,306,306,306,1,houses/images/48.jpg,houses/images/145.jpg,307,s,001,2020-11-19_22h12.20.498,test2,2020.2.5,Win32,60
,,,,m,1.630785,0,307,307,307,1,houses/images/49.jpg,houses/images/135.jpg,308,s,001,2020-11-19_22h12.20.498,test2,2020.2.5,Win32,60
,,,,m,2.015635,0,308,308,308,1,houses/images/5.jpg,houses/images/59.jpg,309,s,001,2020-11-19_22h12.20.498,test2,2020.2.5,Win32,60
,,,,z,1.275515,0,309,309,309,1,houses/images/50.jpg,houses/images/164.jpg,310,s,001,2020-11-19_22h12.20.498,test2,2020.2.5,Win32,60
,,,,z,1.82012,0,310,310,310,1,houses/images/51.jpg,houses/images/42.jpg,311,s,001,2020-11-19_22h12.20.498,test2,2020.2.5,Win32,60
,,,,m,1.412725,0,311,311,311,1,houses/images/52.jpg,houses/images/32.jpg,312,s,001,2020-11-19_22h12.20.498,test2,2020.2.5,Win32,60
,,,,m,1.524095,0,312,312,312,1,houses/images/53.jpg,houses/images/357.jpg,313,s,001,2020-11-19_22h12.20.498,test2,2020.2.5,Win32,60
,,,,z,2.235705,0,313,313,313,1,houses/images/54.jpg,houses/images/305.jpg,314,s,001,2020-11-19_22h12.20.498,test2,2020.2.5,Win32,60
,,,,z,1.929765,0,314,314,314,1,houses/images/55.jpg,houses/images/352.jpg,315,s,001,2020-11-19_22h12.20.498,test2,2020.2.5,Win32,60
,,,,z,1.191915,0,315,315,315,1,houses/images/56.jpg,houses/images/273.jpg,316,s,001,2020-11-19_22h12.20.498,test2,2020.2.5,Win32,60
,,,,m,4.38065,0,316,316,316,1,houses/images/57.jpg,houses/images/143.jpg,317,s,001,2020-11-19_22h12.20.498,test2,2020.2.5,Win32,60
,,,,z,1.952125,0,317,317,317,1,houses/images/58.jpg,houses/images/95.jpg,318,s,001,2020-11-19_22h12.20.498,test2,2020.2.5,Win32,60
,,,,z,1.201655,0,318,318,318,1,houses/images/59.jpg,houses/images/244.jpg,319,s,001,2020-11-19_22h12.20.498,test2,2020.2.5,Win32,60
,,,,z,0.99892,0,319,319,319,1,houses/images/6.jpg,houses/images/202.jpg,320,s,001,2020-11-19_22h12.20.498,test2,2020.2.5,Win32,60
,,,,m,1.433505,0,320,320,320,1,houses/images/60.jpg,houses/images/203.jpg,321,s,001,2020-11-19_22h12.20.498,test2,2020.2.5,Win32,60
,,,,m,1.20173,0,321,321,321,1,houses/images/61.jpg,houses/images/123.jpg,322,s,001,2020-11-19_22h12.20.498,test2,2020.2.5,Win32,60
,,,,z,2.214835,0,322,322,322,1,houses/images/62.jpg,houses/images/353.jpg,323,s,001,2020-11-19_22h12.20.498,test2,2020.2.5,Win32,60
,,,,m,2.002145,0,323,323,323,1,houses/images/63.jpg,houses/images/281.jpg,324,s,001,2020-11-19_22h12.20.498,test2,2020.2.5,Win32,60
,,,,m,3.587275,0,324,324,324,1,houses/images/64.jpg,houses/images/280.jpg,325,s,001,2020-11-19_22h12.20.498,test2,2020.2.5,Win32,60
,,,,m,1.37535,0,325,325,325,1,houses/images/65.jpg,houses/images/309.jpg,326,s,001,2020-11-19_22h12.20.498,test2,2020.2.5,Win32,60
,,,,m,1.15645,0,326,326,326,1,houses/images/66.jpg,houses/images/302.jpg,327,s,001,2020-11-19_22h12.20.498,test2,2020.2.5,Win32,60
,,,,m,1.958805,0,327,327,327,1,houses/images/67.jpg,houses/images/300.jpg,328,s,001,2020-11-19_22h12.20.498,test2,2020.2.5,Win32,60
,,,,z,1.203585,0,328,328,328,1,houses/images/68.jpg,houses/images/328.jpg,329,s,001,2020-11-19_22h12.20.498,test2,2020.2.5,Win32,60
,,,,m,0.915845,0,329,329,329,1,houses/images/69.jpg,houses/images/114.jpg,330,s,001,2020-11-19_22h12.20.498,test2,2020.2.5,Win32,60
,,,,m,1.831205,0,330,330,330,1,houses/images/7.jpg,houses/images/31.jpg,331,s,001,2020-11-19_22h12.20.498,test2,2020.2.5,Win32,60
,,,,z,1.085435,0,331,331,331,1,houses/images/70.jpg,houses/images/54.jpg,332,s,001,2020-11-19_22h12.20.498,test2,2020.2.5,Win32,60
,,,,z,1.15597,0,332,332,332,1,houses/images/71.jpg,houses/images/293.jpg,333,s,001,2020-11-19_22h12.20.498,test2,2020.2.5,Win32,60
,,,,m,2.540725,0,333,333,333,1,houses/images/72.jpg,houses/images/37.jpg,334,s,001,2020-11-19_22h12.20.498,test2,2020.2.5,Win32,60
,,,,m,3.651875,0,334,334,334,1,houses/images/73.jpg,houses/images/230.jpg,335,s,001,2020-11-19_22h12.20.498,test2,2020.2.5,Win32,60
,,,,z,1.852555,0,335,335,335,1,houses/images/74.jpg,houses/images/88.jpg,336,s,001,2020-11-19_22h12.20.498,test2,2020.2.5,Win32,60
,,,,m,2.305505,0,336,336,336,1,houses/images/75.jpg,houses/images/161.jpg,337,s,001,2020-11-19_22h12.20.498,test2,2020.2.5,Win32,60
,,,,m,3.014545,0,337,337,337,1,houses/images/76.jpg,houses/images/354.jpg,338,s,001,2020-11-19_22h12.20.498,test2,2020.2.5,Win32,60
,,,,m,2.119705,0,338,338,338,1,houses/images/77.jpg,houses/images/251.jpg,339,s,001,2020-11-19_22h12.20.498,test2,2020.2.5,Win32,60
,,,,z,1.672445,0,339,339,339,1,houses/images/78.jpg,houses/images/143.jpg,340,s,001,2020-11-19_22h12.20.498,test2,2020.2.5,Win32,60
,,,,m,4.285005,0,340,340,340,1,houses/images/79.jpg,houses/images/335.jpg,341,s,001,2020-11-19_22h12.20.498,test2,2020.2.5,Win32,60
,,,,m,2.18985,0,341,341,341,1,houses/images/8.jpg,houses/images/231.jpg,342,s,001,2020-11-19_22h12.20.498,test2,2020.2.5,Win32,60
,,,,m,4.74792,0,342,342,342,1,houses/images/80.jpg,houses/images/69.jpg,343,s,001,2020-11-19_22h12.20.498,test2,2020.2.5,Win32,60
,,,,z,1.063125,0,343,343,343,1,houses/images/81.jpg,houses/images/92.jpg,344,s,001,2020-11-19_22h12.20.498,test2,2020.2.5,Win32,60
,,,,z,1.015745,0,344,344,344,1,houses/images/82.jpg,houses/images/221.jpg,345,s,001,2020-11-19_22h12.20.498,test2,2020.2.5,Win32,60
,,,,z,1.25143,0,345,345,345,1,houses/images/83.jpg,houses/images/196.jpg,346,s,001,2020-11-19_22h12.20.498,test2,2020.2.5,Win32,60
,,,,z,1.4251,0,346,346,346,1,houses/images/84.jpg,houses/images/53.jpg,347,s,001,2020-11-19_22h12.20.498,test2,2020.2.5,Win32,60
,,,,m,1.21074,0,347,347,347,1,houses/images/85.jpg,houses/images/166.jpg,348,s,001,2020-11-19_22h12.20.498,test2,2020.2.5,Win32,60
,,,,z,1.70172,0,348,348,348,1,houses/images/86.jpg,houses/images/266.jpg,349,s,001,2020-11-19_22h12.20.498,test2,2020.2.5,Win32,60
,,,,m,1.15091,0,349,349,349,1,houses/images/87.jpg,houses/images/355.jpg,350,s,001,2020-11-19_22h12.20.498,test2,2020.2.5,Win32,60
,,,,z,1.80386,0,350,350,350,1,houses/images/88.jpg,houses/images/206.jpg,351,s,001,2020-11-19_22h12.20.498,test2,2020.2.5,Win32,60
,,,,z,4.26398,0,351,351,351,1,houses/images/89.jpg,houses/images/241.jpg,352,s,001,2020-11-19_22h12.20.498,test2,2020.2.5,Win32,60
,,,,m,1.14819,0,352,352,352,1,houses/images/9.jpg,houses/images/147.jpg,353,s,001,2020-11-19_22h12.20.498,test2,2020.2.5,Win32,60
,,,,z,1.347465,0,353,353,353,1,houses/images/90.jpg,houses/images/117.jpg,354,s,001,2020-11-19_22h12.20.498,test2,2020.2.5,Win32,60
,,,,m,0.762325,0,354,354,354,1,houses/images/91.jpg,houses/images/34.jpg,355,s,001,2020-11-19_22h12.20.498,test2,2020.2.5,Win32,60
,,,,m,2.11412,0,355,355,355,1,houses/images/92.jpg,houses/images/105.jpg,356,s,001,2020-11-19_22h12.20.498,test2,2020.2.5,Win32,60
,,,,z,1.151535,0,356,356,356,1,houses/images/93.jpg,houses/images/249.jpg,357,s,001,2020-11-19_22h12.20.498,test2,2020.2.5,Win32,60
,,,,z,0.979835,0,357,357,357,1,houses/images/94.jpg,houses/images/265.jpg,358,s,001,2020-11-19_22h12.20.498,test2,2020.2.5,Win32,60
,,,,z,1.31407,0,358,358,358,1,houses/images/95.jpg,houses/images/65.jpg,359,s,001,2020-11-19_22h12.20.498,test2,2020.2.5,Win32,60
,,,,m,2.37199,0,359,359,359,1,houses/images/96.jpg,houses/images/83.jpg,360,s,001,2020-11-19_22h12.20.498,test2,2020.2.5,Win32,60
,,,,z,4.76343,0,360,360,360,1,houses/images/97.jpg,houses/images/165.jpg,361,s,001,2020-11-19_22h12.20.498,test2,2020.2.5,Win32,60
,,,,z,2.04002,0,361,361,361,1,houses/images/98.jpg,houses/images/280.jpg,362,s,001,2020-11-19_22h12.20.498,test2,2020.2.5,Win32,60
,,,,m,1.11454,0,362,362,362,1,houses/images/199.jpg,houses/images/278.jpg,363,s,001,2020-11-19_22h12.20.498,test2,2020.2.5,Win32,60
,,,,m,0.869065,0,363,363,363,1,houses/images/0.jpg,houses/images/297.jpg,364,s,001,2020-11-19_22h12.20.498,test2,2020.2.5,Win32,60
,,,,m,5.52415,0,364,364,364,1,houses/images/1.jpg,houses/images/225.jpg,365,s,001,2020-11-19_22h12.20.498,test2,2020.2.5,Win32,60
,,,,m,1.88965,0,365,365,365,1,houses/images/10.jpg,houses/images/41.jpg,366,s,001,2020-11-19_22h12.20.498,test2,2020.2.5,Win32,60
,,,,z,4.579505,0,366,366,366,1,houses/images/100.jpg,houses/images/19.jpg,367,s,001,2020-11-19_22h12.20.498,test2,2020.2.5,Win32,60
,,,,m,2.105855,0,367,367,367,1,houses/images/101.jpg,houses/images/189.jpg,368,s,001,2020-11-19_22h12.20.498,test2,2020.2.5,Win32,60
,,,,m,1.632415,0,368,368,368,1,houses/images/102.jpg,houses/images/141.jpg,369,s,001,2020-11-19_22h12.20.498,test2,2020.2.5,Win32,60
,,,,z,2.539665,0,369,369,369,1,houses/images/103.jpg,houses/images/212.jpg,370,s,001,2020-11-19_22h12.20.498,test2,2020.2.5,Win32,60
,,,,z,2.144605,0,370,370,370,1,houses/images/104.jpg,houses/images/134.jpg,371,s,001,2020-11-19_22h12.20.498,test2,2020.2.5,Win32,60
,,,,m,3.01147,0,371,371,371,1,houses/images/105.jpg,houses/images/13.jpg,372,s,001,2020-11-19_22h12.20.498,test2,2020.2.5,Win32,60
,,,,m,1.68453,0,372,372,372,1,houses/images/106.jpg,houses/images/258.jpg,373,s,001,2020-11-19_22h12.20.498,test2,2020.2.5,Win32,60
,,,,z,0.991255,0,373,373,373,1,houses/images/107.jpg,houses/images/14.jpg,374,s,001,2020-11-19_22h12.20.498,test2,2020.2.5,Win32,60
,,,,m,2.64783,0,374,374,374,1,houses/images/108.jpg,houses/images/9.jpg,375,s,001,2020-11-19_22h12.20.498,test2,2020.2.5,Win32,60
,,,,m,1.233335,0,375,375,375,1,houses/images/109.jpg,houses/images/106.jpg,376,s,001,2020-11-19_22h12.20.498,test2,2020.2.5,Win32,60
,,,,m,2.12257,0,376,376,376,1,houses/images/11.jpg,houses/images/268.jpg,377,s,001,2020-11-19_22h12.20.498,test2,2020.2.5,Win32,60
,,,,m,1.251305,0,377,377,377,1,houses/images/210.jpg,houses/images/330.jpg,378,s,001,2020-11-19_22h12.20.498,test2,2020.2.5,Win32,60
,,,,m,3.65447,0,378,378,378,1,houses/images/111.jpg,houses/images/343.jpg,379,s,001,2020-11-19_22h12.20.498,test2,2020.2.5,Win32,60
,,,,z,1.149415,0,379,379,379,1,houses/images/112.jpg,houses/images/225.jpg,380,s,001,2020-11-19_22h12.20.498,test2,2020.2.5,Win32,60
,,,,m,1.478505,0,380,380,380,1,houses/images/113.jpg,houses/images/174.jpg,381,s,001,2020-11-19_22h12.20.498,test2,2020.2.5,Win32,60
,,,,z,0.93738,0,381,381,381,1,houses/images/114.jpg,houses/images/25.jpg,382,s,001,2020-11-19_22h12.20.498,test2,2020.2.5,Win32,60
,,,,m,2.4632,0,382,382,382,1,houses/images/115.jpg,houses/images/100.jpg,383,s,001,2020-11-19_22h12.20.498,test2,2020.2.5,Win32,60
,,,,z,2.10003,0,383,383,383,1,houses/images/116.jpg,houses/images/48.jpg,384,s,001,2020-11-19_22h12.20.498,test2,2020.2.5,Win32,60
,,,,m,1.03223,0,384,384,384,1,houses/images/117.jpg,houses/images/296.jpg,385,s,001,2020-11-19_22h12.20.498,test2,2020.2.5,Win32,60
,,,,m,1.74581,0,385,385,385,1,houses/images/118.jpg,houses/images/15.jpg,386,s,001,2020-11-19_22h12.20.498,test2,2020.2.5,Win32,60
,,,,m,1.606315,0,386,386,386,1,houses/images/119.jpg,houses/images/252.jpg,387,s,001,2020-11-19_22h12.20.498,test2,2020.2.5,Win32,60
,,,,z,6.32924,0,387,387,387,1,houses/images/12.jpg,houses/images/290.jpg,388,s,001,2020-11-19_22h12.20.498,test2,2020.2.5,Win32,60
,,,,z,1.207535,0,388,388,388,1,houses/images/120.jpg,houses/images/236.jpg,389,s,001,2020-11-19_22h12.20.498,test2,2020.2.5,Win32,60
,,,,z,1.633065,0,389,389,389,1,houses/images/121.jpg,houses/images/260.jpg,390,s,001,2020-11-19_22h12.20.498,test2,2020.2.5,Win32,60
,,,,m,1.74805,0,390,390,390,1,houses/images/122.jpg,houses/images/56.jpg,391,s,001,2020-11-19_22h12.20.498,test2,2020.2.5,Win32,60
,,,,z,1.456215,0,391,391,391,1,houses/images/123.jpg,houses/images/336.jpg,392,s,001,2020-11-19_22h12.20.498,test2,2020.2.5,Win32,60
,,,,m,1.1095,0,392,392,392,1,houses/images/124.jpg,houses/images/39.jpg,393,s,001,2020-11-19_22h12.20.498,test2,2020.2.5,Win32,60
,,,,m,1.673965,0,393,393,393,1,houses/images/225.jpg,houses/images/302.jpg,394,s,001,2020-11-19_22h12.20.498,test2,2020.2.5,Win32,60
,,,,z,4.127365,0,394,394,394,1,houses/images/226.jpg,houses/images/207.jpg,395,s,001,2020-11-19_22h12.20.498,test2,2020.2.5,Win32,60
,,,,z,1.202435,0,395,395,395,1,houses/images/127.jpg,houses/images/348.jpg,396,s,001,2020-11-19_22h12.20.498,test2,2020.2.5,Win32,60
,,,,z,1.536755,0,396,396,396,1,houses/images/128.jpg,houses/images/151.jpg,397,s,001,2020-11-19_22h12.20.498,test2,2020.2.5,Win32,60
,,,,m,1.279725,0,397,397,397,1,houses/images/129.jpg,houses/images/315.jpg,398,s,001,2020-11-19_22h12.20.498,test2,2020.2.5,Win32,60
,,,,m,1.85565,0,398,398,398,1,houses/images/13.jpg,houses/images/63.jpg,399,s,001,2020-11-19_22h12.20.498,test2,2020.2.5,Win32,60
,,,,m,4.00021,0,399,399,399,1,houses/images/307.jpg,houses/images/172.jpg,400,s,001,2020-11-19_22h12.20.498,test2,2020.2.5,Win32,60
