key_resp.keys,key_resp.rt,key_resp_3.keys,key_resp_3.rt,key_resp_2.keys,key_resp_2.rt,trials.thisRepN,trials.thisTrialN,trials.thisN,trials.thisIndex,trials.ran,image_left,image_right,trial_num,participant,session,date,expName,psychopyVersion,OS,frameRate
space,1.79206,space,0.54171,z,5.48255,0,0,0,0,1,houses/images/0.jpg,houses/images/349.jpg,1,Sophia,001,2020-11-18_20h29.24.426,test2,2020.2.5,MacIntel,60
,,,,z,2.550855,0,1,1,1,1,houses/images/1.jpg,houses/images/194.jpg,2,Sophia,001,2020-11-18_20h29.24.426,test2,2020.2.5,MacIntel,60
,,,,z,1.61606,0,2,2,2,1,houses/images/10.jpg,houses/images/159.jpg,3,Sophia,001,2020-11-18_20h29.24.426,test2,2020.2.5,MacIntel,60
,,,,z,3.183505,0,3,3,3,1,houses/images/100.jpg,houses/images/42.jpg,4,Sophia,001,2020-11-18_20h29.24.426,test2,2020.2.5,MacIntel,60
,,,,m,12.0492,0,4,4,4,1,houses/images/101.jpg,houses/images/240.jpg,5,Sophia,001,2020-11-18_20h29.24.426,test2,2020.2.5,MacIntel,60
,,,,m,1.79344,0,5,5,5,1,houses/images/102.jpg,houses/images/201.jpg,6,Sophia,001,2020-11-18_20h29.24.426,test2,2020.2.5,MacIntel,60
,,,,z,1.45093,0,6,6,6,1,houses/images/103.jpg,houses/images/223.jpg,7,Sophia,001,2020-11-18_20h29.24.426,test2,2020.2.5,MacIntel,60
,,,,z,1.44539,0,7,7,7,1,houses/images/104.jpg,houses/images/46.jpg,8,Sophia,001,2020-11-18_20h29.24.426,test2,2020.2.5,MacIntel,60
,,,,m,2.64873,0,8,8,8,1,houses/images/105.jpg,houses/images/109.jpg,9,Sophia,001,2020-11-18_20h29.24.426,test2,2020.2.5,MacIntel,60
,,,,m,2.982245,0,9,9,9,1,houses/images/106.jpg,houses/images/12.jpg,10,Sophia,001,2020-11-18_20h29.24.426,test2,2020.2.5,MacIntel,60
,,,,m,2.692695,0,10,10,10,1,houses/images/107.jpg,houses/images/358.jpg,11,Sophia,001,2020-11-18_20h29.24.426,test2,2020.2.5,MacIntel,60
,,,,z,3.37619,0,11,11,11,1,houses/images/108.jpg,houses/images/197.jpg,12,Sophia,001,2020-11-18_20h29.24.426,test2,2020.2.5,MacIntel,60
,,,,m,3.11815,0,12,12,12,1,houses/images/109.jpg,houses/images/133.jpg,13,Sophia,001,2020-11-18_20h29.24.426,test2,2020.2.5,MacIntel,60
,,,,z,2.001715,0,13,13,13,1,houses/images/11.jpg,houses/images/286.jpg,14,Sophia,001,2020-11-18_20h29.24.426,test2,2020.2.5,MacIntel,60
,,,,z,1.776795,0,14,14,14,1,houses/images/210.jpg,houses/images/33.jpg,15,Sophia,001,2020-11-18_20h29.24.426,test2,2020.2.5,MacIntel,60
,,,,z,1.53225,0,15,15,15,1,houses/images/111.jpg,houses/images/156.jpg,16,Sophia,001,2020-11-18_20h29.24.426,test2,2020.2.5,MacIntel,60
,,,,m,4.30934,0,16,16,16,1,houses/images/112.jpg,houses/images/128.jpg,17,Sophia,001,2020-11-18_20h29.24.426,test2,2020.2.5,MacIntel,60
,,,,m,2.06722,0,17,17,17,1,houses/images/113.jpg,houses/images/306.jpg,18,Sophia,001,2020-11-18_20h29.24.426,test2,2020.2.5,MacIntel,60
,,,,m,2.39396,0,18,18,18,1,houses/images/114.jpg,houses/images/272.jpg,19,Sophia,001,2020-11-18_20h29.24.426,test2,2020.2.5,MacIntel,60
,,,,m,5.31822,0,19,19,19,1,houses/images/115.jpg,houses/images/112.jpg,20,Sophia,001,2020-11-18_20h29.24.426,test2,2020.2.5,MacIntel,60
,,,,m,1.655615,0,20,20,20,1,houses/images/116.jpg,houses/images/101.jpg,21,Sophia,001,2020-11-18_20h29.24.426,test2,2020.2.5,MacIntel,60
,,,,m,2.85173,0,21,21,21,1,houses/images/117.jpg,houses/images/298.jpg,22,Sophia,001,2020-11-18_20h29.24.426,test2,2020.2.5,MacIntel,60
,,,,m,2.67934,0,22,22,22,1,houses/images/118.jpg,houses/images/80.jpg,23,Sophia,001,2020-11-18_20h29.24.426,test2,2020.2.5,MacIntel,60
,,,,m,1.38344,0,23,23,23,1,houses/images/119.jpg,houses/images/329.jpg,24,Sophia,001,2020-11-18_20h29.24.426,test2,2020.2.5,MacIntel,60
,,,,m,4.67266,0,24,24,24,1,houses/images/12.jpg,houses/images/320.jpg,25,Sophia,001,2020-11-18_20h29.24.426,test2,2020.2.5,MacIntel,60
,,,,z,4.466965,0,25,25,25,1,houses/images/120.jpg,houses/images/24.jpg,26,Sophia,001,2020-11-18_20h29.24.426,test2,2020.2.5,MacIntel,60
,,,,m,1.844805,0,26,26,26,1,houses/images/121.jpg,houses/images/341.jpg,27,Sophia,001,2020-11-18_20h29.24.426,test2,2020.2.5,MacIntel,60
,,,,z,2.46855,0,27,27,27,1,houses/images/122.jpg,houses/images/38.jpg,28,Sophia,001,2020-11-18_20h29.24.426,test2,2020.2.5,MacIntel,60
,,,,z,1.115435,0,28,28,28,1,houses/images/123.jpg,houses/images/98.jpg,29,Sophia,001,2020-11-18_20h29.24.426,test2,2020.2.5,MacIntel,60
,,,,z,1.41277,0,29,29,29,1,houses/images/124.jpg,houses/images/213.jpg,30,Sophia,001,2020-11-18_20h29.24.426,test2,2020.2.5,MacIntel,60
,,,,z,1.4663,0,30,30,30,1,houses/images/225.jpg,houses/images/208.jpg,31,Sophia,001,2020-11-18_20h29.24.426,test2,2020.2.5,MacIntel,60
,,,,m,1.317135,0,31,31,31,1,houses/images/226.jpg,houses/images/210.jpg,32,Sophia,001,2020-11-18_20h29.24.426,test2,2020.2.5,MacIntel,60
,,,,z,1.800605,0,32,32,32,1,houses/images/127.jpg,houses/images/90.jpg,33,Sophia,001,2020-11-18_20h29.24.426,test2,2020.2.5,MacIntel,60
,,,,z,1.8139,0,33,33,33,1,houses/images/128.jpg,houses/images/113.jpg,34,Sophia,001,2020-11-18_20h29.24.426,test2,2020.2.5,MacIntel,60
,,,,m,1.36361,0,34,34,34,1,houses/images/129.jpg,houses/images/232.jpg,35,Sophia,001,2020-11-18_20h29.24.426,test2,2020.2.5,MacIntel,60
,,,,z,3.46755,0,35,35,35,1,houses/images/13.jpg,houses/images/359.jpg,36,Sophia,001,2020-11-18_20h29.24.426,test2,2020.2.5,MacIntel,60
,,,,z,3.783485,0,36,36,36,1,houses/images/130.jpg,houses/images/187.jpg,37,Sophia,001,2020-11-18_20h29.24.426,test2,2020.2.5,MacIntel,60
,,,,z,1.785595,0,37,37,37,1,houses/images/131.jpg,houses/images/275.jpg,38,Sophia,001,2020-11-18_20h29.24.426,test2,2020.2.5,MacIntel,60
,,,,z,1.694265,0,38,38,38,1,houses/images/132.jpg,houses/images/162.jpg,39,Sophia,001,2020-11-18_20h29.24.426,test2,2020.2.5,MacIntel,60
,,,,m,3.076635,0,39,39,39,1,houses/images/133.jpg,houses/images/311.jpg,40,Sophia,001,2020-11-18_20h29.24.426,test2,2020.2.5,MacIntel,60
,,,,z,1.983795,0,40,40,40,1,houses/images/134.jpg,houses/images/277.jpg,41,Sophia,001,2020-11-18_20h29.24.426,test2,2020.2.5,MacIntel,60
,,,,m,1.399475,0,41,41,41,1,houses/images/135.jpg,houses/images/71.jpg,42,Sophia,001,2020-11-18_20h29.24.426,test2,2020.2.5,MacIntel,60
,,,,z,4.81842,0,42,42,42,1,houses/images/236.jpg,houses/images/72.jpg,43,Sophia,001,2020-11-18_20h29.24.426,test2,2020.2.5,MacIntel,60
,,,,m,3.348565,0,43,43,43,1,houses/images/137.jpg,houses/images/246.jpg,44,Sophia,001,2020-11-18_20h29.24.426,test2,2020.2.5,MacIntel,60
,,,,m,2.88357,0,44,44,44,1,houses/images/138.jpg,houses/images/174.jpg,45,Sophia,001,2020-11-18_20h29.24.426,test2,2020.2.5,MacIntel,60
,,,,m,1.76731,0,45,45,45,1,houses/images/239.jpg,houses/images/292.jpg,46,Sophia,001,2020-11-18_20h29.24.426,test2,2020.2.5,MacIntel,60
,,,,m,1.617425,0,46,46,46,1,houses/images/14.jpg,houses/images/194.jpg,47,Sophia,001,2020-11-18_20h29.24.426,test2,2020.2.5,MacIntel,60
,,,,m,1.840125,0,47,47,47,1,houses/images/240.jpg,houses/images/180.jpg,48,Sophia,001,2020-11-18_20h29.24.426,test2,2020.2.5,MacIntel,60
,,,,m,4.01727,0,48,48,48,1,houses/images/141.jpg,houses/images/262.jpg,49,Sophia,001,2020-11-18_20h29.24.426,test2,2020.2.5,MacIntel,60
,,,,m,1.76004,0,49,49,49,1,houses/images/42.jpg,houses/images/118.jpg,50,Sophia,001,2020-11-18_20h29.24.426,test2,2020.2.5,MacIntel,60
,,,,z,1.65014,0,50,50,50,1,houses/images/143.jpg,houses/images/316.jpg,51,Sophia,001,2020-11-18_20h29.24.426,test2,2020.2.5,MacIntel,60
,,,,m,1.173705,0,51,51,51,1,houses/images/144.jpg,houses/images/29.jpg,52,Sophia,001,2020-11-18_20h29.24.426,test2,2020.2.5,MacIntel,60
,,,,m,1.106025,0,52,52,52,1,houses/images/145.jpg,houses/images/146.jpg,53,Sophia,001,2020-11-18_20h29.24.426,test2,2020.2.5,MacIntel,60
,,,,m,1.78488,0,53,53,53,1,houses/images/146.jpg,houses/images/342.jpg,54,Sophia,001,2020-11-18_20h29.24.426,test2,2020.2.5,MacIntel,60
,,,,m,2.09116,0,54,54,54,1,houses/images/147.jpg,houses/images/120.jpg,55,Sophia,001,2020-11-18_20h29.24.426,test2,2020.2.5,MacIntel,60
,,,,m,1.00936,0,55,55,55,1,houses/images/148.jpg,houses/images/204.jpg,56,Sophia,001,2020-11-18_20h29.24.426,test2,2020.2.5,MacIntel,60
,,,,m,0.9321,0,56,56,56,1,houses/images/149.jpg,houses/images/292.jpg,57,Sophia,001,2020-11-18_20h29.24.426,test2,2020.2.5,MacIntel,60
,,,,z,4.57606,0,57,57,57,1,houses/images/15.jpg,houses/images/191.jpg,58,Sophia,001,2020-11-18_20h29.24.426,test2,2020.2.5,MacIntel,60
,,,,m,1.01903,0,58,58,58,1,houses/images/150.jpg,houses/images/318.jpg,59,Sophia,001,2020-11-18_20h29.24.426,test2,2020.2.5,MacIntel,60
,,,,m,2.915895,0,59,59,59,1,houses/images/151.jpg,houses/images/255.jpg,60,Sophia,001,2020-11-18_20h29.24.426,test2,2020.2.5,MacIntel,60
,,,,z,1.2224,0,60,60,60,1,houses/images/152.jpg,houses/images/261.jpg,61,Sophia,001,2020-11-18_20h29.24.426,test2,2020.2.5,MacIntel,60
,,,,z,1.48442,0,61,61,61,1,houses/images/253.jpg,houses/images/129.jpg,62,Sophia,001,2020-11-18_20h29.24.426,test2,2020.2.5,MacIntel,60
,,,,m,0.81803,0,62,62,62,1,houses/images/154.jpg,houses/images/36.jpg,63,Sophia,001,2020-11-18_20h29.24.426,test2,2020.2.5,MacIntel,60
,,,,m,1.768225,0,63,63,63,1,houses/images/155.jpg,houses/images/210.jpg,64,Sophia,001,2020-11-18_20h29.24.426,test2,2020.2.5,MacIntel,60
,,,,m,1.316525,0,64,64,64,1,houses/images/156.jpg,houses/images/132.jpg,65,Sophia,001,2020-11-18_20h29.24.426,test2,2020.2.5,MacIntel,60
,,,,z,3.67386,0,65,65,65,1,houses/images/157.jpg,houses/images/70.jpg,66,Sophia,001,2020-11-18_20h29.24.426,test2,2020.2.5,MacIntel,60
,,,,z,2.760645,0,66,66,66,1,houses/images/158.jpg,houses/images/199.jpg,67,Sophia,001,2020-11-18_20h29.24.426,test2,2020.2.5,MacIntel,60
,,,,m,1.093535,0,67,67,67,1,houses/images/159.jpg,houses/images/226.jpg,68,Sophia,001,2020-11-18_20h29.24.426,test2,2020.2.5,MacIntel,60
,,,,z,3.382145,0,68,68,68,1,houses/images/16.jpg,houses/images/50.jpg,69,Sophia,001,2020-11-18_20h29.24.426,test2,2020.2.5,MacIntel,60
,,,,z,4.730885,0,69,69,69,1,houses/images/160.jpg,houses/images/239.jpg,70,Sophia,001,2020-11-18_20h29.24.426,test2,2020.2.5,MacIntel,60
,,,,z,1.182045,0,70,70,70,1,houses/images/161.jpg,houses/images/289.jpg,71,Sophia,001,2020-11-18_20h29.24.426,test2,2020.2.5,MacIntel,60
,,,,m,2.49039,0,71,71,71,1,houses/images/162.jpg,houses/images/325.jpg,72,Sophia,001,2020-11-18_20h29.24.426,test2,2020.2.5,MacIntel,60
,,,,z,2.24915,0,72,72,72,1,houses/images/163.jpg,houses/images/259.jpg,73,Sophia,001,2020-11-18_20h29.24.426,test2,2020.2.5,MacIntel,60
,,,,m,2.50043,0,73,73,73,1,houses/images/164.jpg,houses/images/316.jpg,74,Sophia,001,2020-11-18_20h29.24.426,test2,2020.2.5,MacIntel,60
,,,,m,1.867235,0,74,74,74,1,houses/images/165.jpg,houses/images/311.jpg,75,Sophia,001,2020-11-18_20h29.24.426,test2,2020.2.5,MacIntel,60
,,,,z,1.64706,0,75,75,75,1,houses/images/166.jpg,houses/images/246.jpg,76,Sophia,001,2020-11-18_20h29.24.426,test2,2020.2.5,MacIntel,60
,,,,m,1.41557,0,76,76,76,1,houses/images/167.jpg,houses/images/269.jpg,77,Sophia,001,2020-11-18_20h29.24.426,test2,2020.2.5,MacIntel,60
,,,,m,1.5843,0,77,77,77,1,houses/images/168.jpg,houses/images/360.jpg,78,Sophia,001,2020-11-18_20h29.24.426,test2,2020.2.5,MacIntel,60
,,,,z,1.018095,0,78,78,78,1,houses/images/169.jpg,houses/images/116.jpg,79,Sophia,001,2020-11-18_20h29.24.426,test2,2020.2.5,MacIntel,60
,,,,z,2.496535,0,79,79,79,1,houses/images/17.jpg,houses/images/245.jpg,80,Sophia,001,2020-11-18_20h29.24.426,test2,2020.2.5,MacIntel,60
,,,,m,1.268065,0,80,80,80,1,houses/images/170.jpg,houses/images/152.jpg,81,Sophia,001,2020-11-18_20h29.24.426,test2,2020.2.5,MacIntel,60
,,,,z,3.516095,0,81,81,81,1,houses/images/171.jpg,houses/images/77.jpg,82,Sophia,001,2020-11-18_20h29.24.426,test2,2020.2.5,MacIntel,60
,,,,z,1.433305,0,82,82,82,1,houses/images/172.jpg,houses/images/154.jpg,83,Sophia,001,2020-11-18_20h29.24.426,test2,2020.2.5,MacIntel,60
,,,,m,1.524475,0,83,83,83,1,houses/images/273.jpg,houses/images/210.jpg,84,Sophia,001,2020-11-18_20h29.24.426,test2,2020.2.5,MacIntel,60
,,,,z,3.9589,0,84,84,84,1,houses/images/174.jpg,houses/images/121.jpg,85,Sophia,001,2020-11-18_20h29.24.426,test2,2020.2.5,MacIntel,60
,,,,z,2.450925,0,85,85,85,1,houses/images/175.jpg,houses/images/47.jpg,86,Sophia,001,2020-11-18_20h29.24.426,test2,2020.2.5,MacIntel,60
,,,,m,2.36672,0,86,86,86,1,houses/images/176.jpg,houses/images/328.jpg,87,Sophia,001,2020-11-18_20h29.24.426,test2,2020.2.5,MacIntel,60
,,,,m,1.52807,0,87,87,87,1,houses/images/177.jpg,houses/images/35.jpg,88,Sophia,001,2020-11-18_20h29.24.426,test2,2020.2.5,MacIntel,60
,,,,m,1.84609,0,88,88,88,1,houses/images/178.jpg,houses/images/299.jpg,89,Sophia,001,2020-11-18_20h29.24.426,test2,2020.2.5,MacIntel,60
,,,,m,2.333575,0,89,89,89,1,houses/images/179.jpg,houses/images/283.jpg,90,Sophia,001,2020-11-18_20h29.24.426,test2,2020.2.5,MacIntel,60
,,,,m,3.227345,0,90,90,90,1,houses/images/18.jpg,houses/images/182.jpg,91,Sophia,001,2020-11-18_20h29.24.426,test2,2020.2.5,MacIntel,60
,,,,z,2.66726,0,91,91,91,1,houses/images/180.jpg,houses/images/327.jpg,92,Sophia,001,2020-11-18_20h29.24.426,test2,2020.2.5,MacIntel,60
,,,,z,2.150365,0,92,92,92,1,houses/images/281.jpg,houses/images/334.jpg,93,Sophia,001,2020-11-18_20h29.24.426,test2,2020.2.5,MacIntel,60
,,,,z,2.637285,0,93,93,93,1,houses/images/182.jpg,houses/images/75.jpg,94,Sophia,001,2020-11-18_20h29.24.426,test2,2020.2.5,MacIntel,60
,,,,m,5.977005,0,94,94,94,1,houses/images/183.jpg,houses/images/137.jpg,95,Sophia,001,2020-11-18_20h29.24.426,test2,2020.2.5,MacIntel,60
,,,,z,2.86705,0,95,95,95,1,houses/images/184.jpg,houses/images/344.jpg,96,Sophia,001,2020-11-18_20h29.24.426,test2,2020.2.5,MacIntel,60
,,,,z,1.847695,0,96,96,96,1,houses/images/185.jpg,houses/images/285.jpg,97,Sophia,001,2020-11-18_20h29.24.426,test2,2020.2.5,MacIntel,60
,,,,m,3.41699,0,97,97,97,1,houses/images/186.jpg,houses/images/230.jpg,98,Sophia,001,2020-11-18_20h29.24.426,test2,2020.2.5,MacIntel,60
,,,,m,1.22762,0,98,98,98,1,houses/images/187.jpg,houses/images/3.jpg,99,Sophia,001,2020-11-18_20h29.24.426,test2,2020.2.5,MacIntel,60
,,,,m,1.584865,0,99,99,99,1,houses/images/188.jpg,houses/images/304.jpg,100,Sophia,001,2020-11-18_20h29.24.426,test2,2020.2.5,MacIntel,60
,,,,m,1.31751,0,100,100,100,1,houses/images/189.jpg,houses/images/17.jpg,101,Sophia,001,2020-11-18_20h29.24.426,test2,2020.2.5,MacIntel,60
,,,,z,1.8353,0,101,101,101,1,houses/images/19.jpg,houses/images/351.jpg,102,Sophia,001,2020-11-18_20h29.24.426,test2,2020.2.5,MacIntel,60
,,,,m,3.634195,0,102,102,102,1,houses/images/190.jpg,houses/images/307.jpg,103,Sophia,001,2020-11-18_20h29.24.426,test2,2020.2.5,MacIntel,60
,,,,m,1.06712,0,103,103,103,1,houses/images/191.jpg,houses/images/326.jpg,104,Sophia,001,2020-11-18_20h29.24.426,test2,2020.2.5,MacIntel,60
,,,,z,1.506915,0,104,104,104,1,houses/images/292.jpg,houses/images/240.jpg,105,Sophia,001,2020-11-18_20h29.24.426,test2,2020.2.5,MacIntel,60
,,,,m,1.74945,0,105,105,105,1,houses/images/193.jpg,houses/images/243.jpg,106,Sophia,001,2020-11-18_20h29.24.426,test2,2020.2.5,MacIntel,60
,,,,m,1.26955,0,106,106,106,1,houses/images/194.jpg,houses/images/291.jpg,107,Sophia,001,2020-11-18_20h29.24.426,test2,2020.2.5,MacIntel,60
,,,,m,2.333515,0,107,107,107,1,houses/images/195.jpg,houses/images/361.jpg,108,Sophia,001,2020-11-18_20h29.24.426,test2,2020.2.5,MacIntel,60
,,,,m,1.86856,0,108,108,108,1,houses/images/196.jpg,houses/images/30.jpg,109,Sophia,001,2020-11-18_20h29.24.426,test2,2020.2.5,MacIntel,60
,,,,z,2.867425,0,109,109,109,1,houses/images/197.jpg,houses/images/22.jpg,110,Sophia,001,2020-11-18_20h29.24.426,test2,2020.2.5,MacIntel,60
,,,,z,3.07617,0,110,110,110,1,houses/images/198.jpg,houses/images/250.jpg,111,Sophia,001,2020-11-18_20h29.24.426,test2,2020.2.5,MacIntel,60
,,,,m,1.984065,0,111,111,111,1,houses/images/199.jpg,houses/images/323.jpg,112,Sophia,001,2020-11-18_20h29.24.426,test2,2020.2.5,MacIntel,60
,,,,z,2.143705,0,112,112,112,1,houses/images/2.jpg,houses/images/187.jpg,113,Sophia,001,2020-11-18_20h29.24.426,test2,2020.2.5,MacIntel,60
,,,,m,3.51527,0,113,113,113,1,houses/images/20.jpg,houses/images/100.jpg,114,Sophia,001,2020-11-18_20h29.24.426,test2,2020.2.5,MacIntel,60
,,,,z,1.89816,0,114,114,114,1,houses/images/200.jpg,houses/images/238.jpg,115,Sophia,001,2020-11-18_20h29.24.426,test2,2020.2.5,MacIntel,60
,,,,z,1.633885,0,115,115,115,1,houses/images/201.jpg,houses/images/58.jpg,116,Sophia,001,2020-11-18_20h29.24.426,test2,2020.2.5,MacIntel,60
,,,,z,1.743925,0,116,116,116,1,houses/images/202.jpg,houses/images/205.jpg,117,Sophia,001,2020-11-18_20h29.24.426,test2,2020.2.5,MacIntel,60
,,,,z,1.55036,0,117,117,117,1,houses/images/203.jpg,houses/images/40.jpg,118,Sophia,001,2020-11-18_20h29.24.426,test2,2020.2.5,MacIntel,60
,,,,z,1.536175,0,118,118,118,1,houses/images/204.jpg,houses/images/64.jpg,119,Sophia,001,2020-11-18_20h29.24.426,test2,2020.2.5,MacIntel,60
,,,,z,1.14719,0,119,119,119,1,houses/images/205.jpg,houses/images/155.jpg,120,Sophia,001,2020-11-18_20h29.24.426,test2,2020.2.5,MacIntel,60
,,,,z,3.94072,0,120,120,120,1,houses/images/206.jpg,houses/images/199.jpg,121,Sophia,001,2020-11-18_20h29.24.426,test2,2020.2.5,MacIntel,60
,,,,m,6.047255,0,121,121,121,1,houses/images/207.jpg,houses/images/233.jpg,122,Sophia,001,2020-11-18_20h29.24.426,test2,2020.2.5,MacIntel,60
,,,,m,3.995595,0,122,122,122,1,houses/images/208.jpg,houses/images/8.jpg,123,Sophia,001,2020-11-18_20h29.24.426,test2,2020.2.5,MacIntel,60
,,,,z,1.59078,0,123,123,123,1,houses/images/209.jpg,houses/images/167.jpg,124,Sophia,001,2020-11-18_20h29.24.426,test2,2020.2.5,MacIntel,60
,,,,m,0.934395,0,124,124,124,1,houses/images/21.jpg,houses/images/103.jpg,125,Sophia,001,2020-11-18_20h29.24.426,test2,2020.2.5,MacIntel,60
,,,,m,2.03691,0,125,125,125,1,houses/images/210.jpg,houses/images/104.jpg,126,Sophia,001,2020-11-18_20h29.24.426,test2,2020.2.5,MacIntel,60
,,,,m,1.274325,0,126,126,126,1,houses/images/211.jpg,houses/images/327.jpg,127,Sophia,001,2020-11-18_20h29.24.426,test2,2020.2.5,MacIntel,60
,,,,z,4.316495,0,127,127,127,1,houses/images/212.jpg,houses/images/253.jpg,128,Sophia,001,2020-11-18_20h29.24.426,test2,2020.2.5,MacIntel,60
,,,,m,1.08405,0,128,128,128,1,houses/images/213.jpg,houses/images/26.jpg,129,Sophia,001,2020-11-18_20h29.24.426,test2,2020.2.5,MacIntel,60
,,,,z,1.132605,0,129,129,129,1,houses/images/214.jpg,houses/images/198.jpg,130,Sophia,001,2020-11-18_20h29.24.426,test2,2020.2.5,MacIntel,60
,,,,m,1.7134,0,130,130,130,1,houses/images/215.jpg,houses/images/4.jpg,131,Sophia,001,2020-11-18_20h29.24.426,test2,2020.2.5,MacIntel,60
,,,,z,2.819815,0,131,131,131,1,houses/images/316.jpg,houses/images/62.jpg,132,Sophia,001,2020-11-18_20h29.24.426,test2,2020.2.5,MacIntel,60
,,,,z,3.216355,0,132,132,132,1,houses/images/217.jpg,houses/images/114.jpg,133,Sophia,001,2020-11-18_20h29.24.426,test2,2020.2.5,MacIntel,60
,,,,m,2.035785,0,133,133,133,1,houses/images/318.jpg,houses/images/308.jpg,134,Sophia,001,2020-11-18_20h29.24.426,test2,2020.2.5,MacIntel,60
,,,,m,3.44295,0,134,134,134,1,houses/images/219.jpg,houses/images/254.jpg,135,Sophia,001,2020-11-18_20h29.24.426,test2,2020.2.5,MacIntel,60
,,,,z,2.707305,0,135,135,135,1,houses/images/22.jpg,houses/images/170.jpg,136,Sophia,001,2020-11-18_20h29.24.426,test2,2020.2.5,MacIntel,60
,,,,z,2.104015,0,136,136,136,1,houses/images/220.jpg,houses/images/179.jpg,137,Sophia,001,2020-11-18_20h29.24.426,test2,2020.2.5,MacIntel,60
,,,,z,4.389335,0,137,137,137,1,houses/images/221.jpg,houses/images/238.jpg,138,Sophia,001,2020-11-18_20h29.24.426,test2,2020.2.5,MacIntel,60
,,,,m,2.300515,0,138,138,138,1,houses/images/222.jpg,houses/images/256.jpg,139,Sophia,001,2020-11-18_20h29.24.426,test2,2020.2.5,MacIntel,60
,,,,z,5.47939,0,139,139,139,1,houses/images/223.jpg,houses/images/322.jpg,140,Sophia,001,2020-11-18_20h29.24.426,test2,2020.2.5,MacIntel,60
,,,,z,1.779705,0,140,140,140,1,houses/images/224.jpg,houses/images/209.jpg,141,Sophia,001,2020-11-18_20h29.24.426,test2,2020.2.5,MacIntel,60
,,,,z,1.375455,0,141,141,141,1,houses/images/225.jpg,houses/images/219.jpg,142,Sophia,001,2020-11-18_20h29.24.426,test2,2020.2.5,MacIntel,60
,,,,m,1.025665,0,142,142,142,1,houses/images/226.jpg,houses/images/79.jpg,143,Sophia,001,2020-11-18_20h29.24.426,test2,2020.2.5,MacIntel,60
,,,,z,1.53322,0,143,143,143,1,houses/images/227.jpg,houses/images/279.jpg,144,Sophia,001,2020-11-18_20h29.24.426,test2,2020.2.5,MacIntel,60
,,,,z,1.15705,0,144,144,144,1,houses/images/228.jpg,houses/images/111.jpg,145,Sophia,001,2020-11-18_20h29.24.426,test2,2020.2.5,MacIntel,60
,,,,m,1.28379,0,145,145,145,1,houses/images/229.jpg,houses/images/257.jpg,146,Sophia,001,2020-11-18_20h29.24.426,test2,2020.2.5,MacIntel,60
,,,,z,1.22814,0,146,146,146,1,houses/images/23.jpg,houses/images/318.jpg,147,Sophia,001,2020-11-18_20h29.24.426,test2,2020.2.5,MacIntel,60
,,,,m,1.04298,0,147,147,147,1,houses/images/230.jpg,houses/images/312.jpg,148,Sophia,001,2020-11-18_20h29.24.426,test2,2020.2.5,MacIntel,60
,,,,m,1.774865,0,148,148,148,1,houses/images/231.jpg,houses/images/253.jpg,149,Sophia,001,2020-11-18_20h29.24.426,test2,2020.2.5,MacIntel,60
,,,,z,2.465625,0,149,149,149,1,houses/images/232.jpg,houses/images/236.jpg,150,Sophia,001,2020-11-18_20h29.24.426,test2,2020.2.5,MacIntel,60
,,,,z,1.19465,0,150,150,150,1,houses/images/233.jpg,houses/images/66.jpg,151,Sophia,001,2020-11-18_20h29.24.426,test2,2020.2.5,MacIntel,60
,,,,m,0.76648,0,151,151,151,1,houses/images/234.jpg,houses/images/138.jpg,152,Sophia,001,2020-11-18_20h29.24.426,test2,2020.2.5,MacIntel,60
,,,,m,2.02721,0,152,152,152,1,houses/images/235.jpg,houses/images/124.jpg,153,Sophia,001,2020-11-18_20h29.24.426,test2,2020.2.5,MacIntel,60
,,,,z,2.075155,0,153,153,153,1,houses/images/236.jpg,houses/images/160.jpg,154,Sophia,001,2020-11-18_20h29.24.426,test2,2020.2.5,MacIntel,60
,,,,z,3.977895,0,154,154,154,1,houses/images/237.jpg,houses/images/314.jpg,155,Sophia,001,2020-11-18_20h29.24.426,test2,2020.2.5,MacIntel,60
,,,,m,2.436005,0,155,155,155,1,houses/images/238.jpg,houses/images/145.jpg,156,Sophia,001,2020-11-18_20h29.24.426,test2,2020.2.5,MacIntel,60
,,,,m,1.557865,0,156,156,156,1,houses/images/239.jpg,houses/images/195.jpg,157,Sophia,001,2020-11-18_20h29.24.426,test2,2020.2.5,MacIntel,60
,,,,m,1.46666,0,157,157,157,1,houses/images/24.jpg,houses/images/0.jpg,158,Sophia,001,2020-11-18_20h29.24.426,test2,2020.2.5,MacIntel,60
,,,,m,1.44347,0,158,158,158,1,houses/images/240.jpg,houses/images/81.jpg,159,Sophia,001,2020-11-18_20h29.24.426,test2,2020.2.5,MacIntel,60
,,,,m,3.07012,0,159,159,159,1,houses/images/241.jpg,houses/images/226.jpg,160,Sophia,001,2020-11-18_20h29.24.426,test2,2020.2.5,MacIntel,60
,,,,m,1.2998,0,160,160,160,1,houses/images/342.jpg,houses/images/319.jpg,161,Sophia,001,2020-11-18_20h29.24.426,test2,2020.2.5,MacIntel,60
,,,,m,1.74214,0,161,161,161,1,houses/images/243.jpg,houses/images/23.jpg,162,Sophia,001,2020-11-18_20h29.24.426,test2,2020.2.5,MacIntel,60
,,,,m,0.742155,0,162,162,162,1,houses/images/244.jpg,houses/images/146.jpg,163,Sophia,001,2020-11-18_20h29.24.426,test2,2020.2.5,MacIntel,60
,,,,m,1.667495,0,163,163,163,1,houses/images/245.jpg,houses/images/28.jpg,164,Sophia,001,2020-11-18_20h29.24.426,test2,2020.2.5,MacIntel,60
,,,,m,1.32704,0,164,164,164,1,houses/images/246.jpg,houses/images/157.jpg,165,Sophia,001,2020-11-18_20h29.24.426,test2,2020.2.5,MacIntel,60
,,,,m,1.490835,0,165,165,165,1,houses/images/247.jpg,houses/images/2.jpg,166,Sophia,001,2020-11-18_20h29.24.426,test2,2020.2.5,MacIntel,60
,,,,m,0.881505,0,166,166,166,1,houses/images/248.jpg,houses/images/87.jpg,167,Sophia,001,2020-11-18_20h29.24.426,test2,2020.2.5,MacIntel,60
,,,,z,0.943365,0,167,167,167,1,houses/images/249.jpg,houses/images/270.jpg,168,Sophia,001,2020-11-18_20h29.24.426,test2,2020.2.5,MacIntel,60
,,,,m,0.83369,0,168,168,168,1,houses/images/25.jpg,houses/images/67.jpg,169,Sophia,001,2020-11-18_20h29.24.426,test2,2020.2.5,MacIntel,60
,,,,m,0.97408,0,169,169,169,1,houses/images/250.jpg,houses/images/234.jpg,170,Sophia,001,2020-11-18_20h29.24.426,test2,2020.2.5,MacIntel,60
,,,,z,2.515465,0,170,170,170,1,houses/images/251.jpg,houses/images/16.jpg,171,Sophia,001,2020-11-18_20h29.24.426,test2,2020.2.5,MacIntel,60
,,,,z,1.670095,0,171,171,171,1,houses/images/252.jpg,houses/images/12.jpg,172,Sophia,001,2020-11-18_20h29.24.426,test2,2020.2.5,MacIntel,60
,,,,m,2.51918,0,172,172,172,1,houses/images/253.jpg,houses/images/185.jpg,173,Sophia,001,2020-11-18_20h29.24.426,test2,2020.2.5,MacIntel,60
,,,,m,3.60065,0,173,173,173,1,houses/images/254.jpg,houses/images/39.jpg,174,Sophia,001,2020-11-18_20h29.24.426,test2,2020.2.5,MacIntel,60
,,,,m,1.6899,0,174,174,174,1,houses/images/255.jpg,houses/images/237.jpg,175,Sophia,001,2020-11-18_20h29.24.426,test2,2020.2.5,MacIntel,60
,,,,z,5.55097,0,175,175,175,1,houses/images/256.jpg,houses/images/356.jpg,176,Sophia,001,2020-11-18_20h29.24.426,test2,2020.2.5,MacIntel,60
,,,,z,2.2836,0,176,176,176,1,houses/images/257.jpg,houses/images/107.jpg,177,Sophia,001,2020-11-18_20h29.24.426,test2,2020.2.5,MacIntel,60
,,,,z,1.49833,0,177,177,177,1,houses/images/258.jpg,houses/images/84.jpg,178,Sophia,001,2020-11-18_20h29.24.426,test2,2020.2.5,MacIntel,60
,,,,m,3.44969,0,178,178,178,1,houses/images/259.jpg,houses/images/119.jpg,179,Sophia,001,2020-11-18_20h29.24.426,test2,2020.2.5,MacIntel,60
,,,,m,3.31718,0,179,179,179,1,houses/images/26.jpg,houses/images/227.jpg,180,Sophia,001,2020-11-18_20h29.24.426,test2,2020.2.5,MacIntel,60
,,,,z,5.623925,0,180,180,180,1,houses/images/260.jpg,houses/images/238.jpg,181,Sophia,001,2020-11-18_20h29.24.426,test2,2020.2.5,MacIntel,60
,,,,m,2.344935,0,181,181,181,1,houses/images/261.jpg,houses/images/337.jpg,182,Sophia,001,2020-11-18_20h29.24.426,test2,2020.2.5,MacIntel,60
,,,,z,1.27682,0,182,182,182,1,houses/images/262.jpg,houses/images/214.jpg,183,Sophia,001,2020-11-18_20h29.24.426,test2,2020.2.5,MacIntel,60
,,,,z,1.091105,0,183,183,183,1,houses/images/263.jpg,houses/images/239.jpg,184,Sophia,001,2020-11-18_20h29.24.426,test2,2020.2.5,MacIntel,60
,,,,m,2.716845,0,184,184,184,1,houses/images/264.jpg,houses/images/149.jpg,185,Sophia,001,2020-11-18_20h29.24.426,test2,2020.2.5,MacIntel,60
,,,,m,1.26122,0,185,185,185,1,houses/images/265.jpg,houses/images/68.jpg,186,Sophia,001,2020-11-18_20h29.24.426,test2,2020.2.5,MacIntel,60
,,,,m,2.375945,0,186,186,186,1,houses/images/266.jpg,houses/images/271.jpg,187,Sophia,001,2020-11-18_20h29.24.426,test2,2020.2.5,MacIntel,60
,,,,m,3.244975,0,187,187,187,1,houses/images/267.jpg,houses/images/87.jpg,188,Sophia,001,2020-11-18_20h29.24.426,test2,2020.2.5,MacIntel,60
,,,,z,2.666335,0,188,188,188,1,houses/images/268.jpg,houses/images/348.jpg,189,Sophia,001,2020-11-18_20h29.24.426,test2,2020.2.5,MacIntel,60
,,,,m,3.699845,0,189,189,189,1,houses/images/269.jpg,houses/images/228.jpg,190,Sophia,001,2020-11-18_20h29.24.426,test2,2020.2.5,MacIntel,60
,,,,z,2.51026,0,190,190,190,1,houses/images/27.jpg,houses/images/317.jpg,191,Sophia,001,2020-11-18_20h29.24.426,test2,2020.2.5,MacIntel,60
,,,,z,1.534025,0,191,191,191,1,houses/images/270.jpg,houses/images/10.jpg,192,Sophia,001,2020-11-18_20h29.24.426,test2,2020.2.5,MacIntel,60
,,,,z,1.56671,0,192,192,192,1,houses/images/271.jpg,houses/images/222.jpg,193,Sophia,001,2020-11-18_20h29.24.426,test2,2020.2.5,MacIntel,60
,,,,m,1.89999,0,193,193,193,1,houses/images/272.jpg,houses/images/314.jpg,194,Sophia,001,2020-11-18_20h29.24.426,test2,2020.2.5,MacIntel,60
,,,,m,1.98578,0,194,194,194,1,houses/images/273.jpg,houses/images/28.jpg,195,Sophia,001,2020-11-18_20h29.24.426,test2,2020.2.5,MacIntel,60
,,,,z,1.83707,0,195,195,195,1,houses/images/174.jpg,houses/images/294.jpg,196,Sophia,001,2020-11-18_20h29.24.426,test2,2020.2.5,MacIntel,60
,,,,m,1.0175,0,196,196,196,1,houses/images/275.jpg,houses/images/60.jpg,197,Sophia,001,2020-11-18_20h29.24.426,test2,2020.2.5,MacIntel,60
,,,,z,3.5011,0,197,197,197,1,houses/images/276.jpg,houses/images/144.jpg,198,Sophia,001,2020-11-18_20h29.24.426,test2,2020.2.5,MacIntel,60
,,,,z,5.119095,0,198,198,198,1,houses/images/277.jpg,houses/images/168.jpg,199,Sophia,001,2020-11-18_20h29.24.426,test2,2020.2.5,MacIntel,60
,,,,m,3.498535,0,199,199,199,1,houses/images/278.jpg,houses/images/206.jpg,200,Sophia,001,2020-11-18_20h29.24.426,test2,2020.2.5,MacIntel,60
,,,,m,1.23482,0,200,200,200,1,houses/images/279.jpg,houses/images/91.jpg,201,Sophia,001,2020-11-18_20h29.24.426,test2,2020.2.5,MacIntel,60
,,,,z,3.32652,0,201,201,201,1,houses/images/28.jpg,houses/images/49.jpg,202,Sophia,001,2020-11-18_20h29.24.426,test2,2020.2.5,MacIntel,60
,,,,z,4.043225,0,202,202,202,1,houses/images/280.jpg,houses/images/163.jpg,203,Sophia,001,2020-11-18_20h29.24.426,test2,2020.2.5,MacIntel,60
,,,,z,5.9766,0,203,203,203,1,houses/images/281.jpg,houses/images/176.jpg,204,Sophia,001,2020-11-18_20h29.24.426,test2,2020.2.5,MacIntel,60
,,,,m,178.412615,0,204,204,204,1,houses/images/282.jpg,houses/images/263.jpg,205,Sophia,001,2020-11-18_20h29.24.426,test2,2020.2.5,MacIntel,60
,,,,z,3.27858,0,205,205,205,1,houses/images/283.jpg,houses/images/303.jpg,206,Sophia,001,2020-11-18_20h29.24.426,test2,2020.2.5,MacIntel,60
,,,,z,2.92802,0,206,206,206,1,houses/images/284.jpg,houses/images/184.jpg,207,Sophia,001,2020-11-18_20h29.24.426,test2,2020.2.5,MacIntel,60
,,,,m,2.2193,0,207,207,207,1,houses/images/285.jpg,houses/images/264.jpg,208,Sophia,001,2020-11-18_20h29.24.426,test2,2020.2.5,MacIntel,60
,,,,m,2.5149,0,208,208,208,1,houses/images/286.jpg,houses/images/89.jpg,209,Sophia,001,2020-11-18_20h29.24.426,test2,2020.2.5,MacIntel,60
,,,,z,4.04623,0,209,209,209,1,houses/images/187.jpg,houses/images/350.jpg,210,Sophia,001,2020-11-18_20h29.24.426,test2,2020.2.5,MacIntel,60
,,,,m,4.5491,0,210,210,210,1,houses/images/288.jpg,houses/images/267.jpg,211,Sophia,001,2020-11-18_20h29.24.426,test2,2020.2.5,MacIntel,60
,,,,m,1.75678,0,211,211,211,1,houses/images/289.jpg,houses/images/332.jpg,212,Sophia,001,2020-11-18_20h29.24.426,test2,2020.2.5,MacIntel,60
,,,,m,4.75928,0,212,212,212,1,houses/images/29.jpg,houses/images/61.jpg,213,Sophia,001,2020-11-18_20h29.24.426,test2,2020.2.5,MacIntel,60
,,,,z,2.956105,0,213,213,213,1,houses/images/290.jpg,houses/images/102.jpg,214,Sophia,001,2020-11-18_20h29.24.426,test2,2020.2.5,MacIntel,60
,,,,z,1.55332,0,214,214,214,1,houses/images/291.jpg,houses/images/220.jpg,215,Sophia,001,2020-11-18_20h29.24.426,test2,2020.2.5,MacIntel,60
,,,,z,3.41307,0,215,215,215,1,houses/images/292.jpg,houses/images/121.jpg,216,Sophia,001,2020-11-18_20h29.24.426,test2,2020.2.5,MacIntel,60
,,,,z,3.983385,0,216,216,216,1,houses/images/293.jpg,houses/images/25.jpg,217,Sophia,001,2020-11-18_20h29.24.426,test2,2020.2.5,MacIntel,60
,,,,m,3.02359,0,217,217,217,1,houses/images/294.jpg,houses/images/284.jpg,218,Sophia,001,2020-11-18_20h29.24.426,test2,2020.2.5,MacIntel,60
,,,,z,1.718915,0,218,218,218,1,houses/images/295.jpg,houses/images/273.jpg,219,Sophia,001,2020-11-18_20h29.24.426,test2,2020.2.5,MacIntel,60
,,,,z,1.57668,0,219,219,219,1,houses/images/296.jpg,houses/images/122.jpg,220,Sophia,001,2020-11-18_20h29.24.426,test2,2020.2.5,MacIntel,60
,,,,z,1.48384,0,220,220,220,1,houses/images/297.jpg,houses/images/217.jpg,221,Sophia,001,2020-11-18_20h29.24.426,test2,2020.2.5,MacIntel,60
,,,,z,4.87357,0,221,221,221,1,houses/images/298.jpg,houses/images/178.jpg,222,Sophia,001,2020-11-18_20h29.24.426,test2,2020.2.5,MacIntel,60
,,,,z,1.467495,0,222,222,222,1,houses/images/299.jpg,houses/images/43.jpg,223,Sophia,001,2020-11-18_20h29.24.426,test2,2020.2.5,MacIntel,60
,,,,m,1.557505,0,223,223,223,1,houses/images/3.jpg,houses/images/229.jpg,224,Sophia,001,2020-11-18_20h29.24.426,test2,2020.2.5,MacIntel,60
,,,,z,4.61817,0,224,224,224,1,houses/images/30.jpg,houses/images/177.jpg,225,Sophia,001,2020-11-18_20h29.24.426,test2,2020.2.5,MacIntel,60
,,,,z,2.342995,0,225,225,225,1,houses/images/300.jpg,houses/images/342.jpg,226,Sophia,001,2020-11-18_20h29.24.426,test2,2020.2.5,MacIntel,60
,,,,z,1.459015,0,226,226,226,1,houses/images/201.jpg,houses/images/57.jpg,227,Sophia,001,2020-11-18_20h29.24.426,test2,2020.2.5,MacIntel,60
,,,,z,1.52371,0,227,227,227,1,houses/images/302.jpg,houses/images/186.jpg,228,Sophia,001,2020-11-18_20h29.24.426,test2,2020.2.5,MacIntel,60
,,,,m,1.340805,0,228,228,228,1,houses/images/303.jpg,houses/images/131.jpg,229,Sophia,001,2020-11-18_20h29.24.426,test2,2020.2.5,MacIntel,60
,,,,z,2.37347,0,229,229,229,1,houses/images/304.jpg,houses/images/183.jpg,230,Sophia,001,2020-11-18_20h29.24.426,test2,2020.2.5,MacIntel,60
,,,,m,3.222535,0,230,230,230,1,houses/images/305.jpg,houses/images/200.jpg,231,Sophia,001,2020-11-18_20h29.24.426,test2,2020.2.5,MacIntel,60
,,,,z,2.434225,0,231,231,231,1,houses/images/306.jpg,houses/images/94.jpg,232,Sophia,001,2020-11-18_20h29.24.426,test2,2020.2.5,MacIntel,60
,,,,m,8.08401,0,232,232,232,1,houses/images/307.jpg,houses/images/96.jpg,233,Sophia,001,2020-11-18_20h29.24.426,test2,2020.2.5,MacIntel,60
,,,,z,1.13441,0,233,233,233,1,houses/images/308.jpg,houses/images/76.jpg,234,Sophia,001,2020-11-18_20h29.24.426,test2,2020.2.5,MacIntel,60
,,,,z,2.04904,0,234,234,234,1,houses/images/309.jpg,houses/images/78.jpg,235,Sophia,001,2020-11-18_20h29.24.426,test2,2020.2.5,MacIntel,60
,,,,m,2.128895,0,235,235,235,1,houses/images/31.jpg,houses/images/76.jpg,236,Sophia,001,2020-11-18_20h29.24.426,test2,2020.2.5,MacIntel,60
,,,,m,3.816465,0,236,236,236,1,houses/images/310.jpg,houses/images/128.jpg,237,Sophia,001,2020-11-18_20h29.24.426,test2,2020.2.5,MacIntel,60
,,,,z,2.706785,0,237,237,237,1,houses/images/311.jpg,houses/images/190.jpg,238,Sophia,001,2020-11-18_20h29.24.426,test2,2020.2.5,MacIntel,60
,,,,m,1.09324,0,238,238,238,1,houses/images/312.jpg,houses/images/5.jpg,239,Sophia,001,2020-11-18_20h29.24.426,test2,2020.2.5,MacIntel,60
,,,,z,2.209925,0,239,239,239,1,houses/images/313.jpg,houses/images/188.jpg,240,Sophia,001,2020-11-18_20h29.24.426,test2,2020.2.5,MacIntel,60
,,,,z,2.09584,0,240,240,240,1,houses/images/314.jpg,houses/images/342.jpg,241,Sophia,001,2020-11-18_20h29.24.426,test2,2020.2.5,MacIntel,60
,,,,z,2.69339,0,241,241,241,1,houses/images/315.jpg,houses/images/288.jpg,242,Sophia,001,2020-11-18_20h29.24.426,test2,2020.2.5,MacIntel,60
,,,,z,3.037595,0,242,242,242,1,houses/images/316.jpg,houses/images/321.jpg,243,Sophia,001,2020-11-18_20h29.24.426,test2,2020.2.5,MacIntel,60
,,,,m,2.034575,0,243,243,243,1,houses/images/317.jpg,houses/images/82.jpg,244,Sophia,001,2020-11-18_20h29.24.426,test2,2020.2.5,MacIntel,60
,,,,z,2.1444,0,244,244,244,1,houses/images/318.jpg,houses/images/169.jpg,245,Sophia,001,2020-11-18_20h29.24.426,test2,2020.2.5,MacIntel,60
,,,,z,2.169255,0,245,245,245,1,houses/images/319.jpg,houses/images/224.jpg,246,Sophia,001,2020-11-18_20h29.24.426,test2,2020.2.5,MacIntel,60
,,,,z,8.199695,0,246,246,246,1,houses/images/32.jpg,houses/images/175.jpg,247,Sophia,001,2020-11-18_20h29.24.426,test2,2020.2.5,MacIntel,60
,,,,z,2.76313,0,247,247,247,1,houses/images/320.jpg,houses/images/247.jpg,248,Sophia,001,2020-11-18_20h29.24.426,test2,2020.2.5,MacIntel,60
,,,,m,1.00154,0,248,248,248,1,houses/images/321.jpg,houses/images/97.jpg,249,Sophia,001,2020-11-18_20h29.24.426,test2,2020.2.5,MacIntel,60
,,,,m,2.940315,0,249,249,249,1,houses/images/322.jpg,houses/images/74.jpg,250,Sophia,001,2020-11-18_20h29.24.426,test2,2020.2.5,MacIntel,60
,,,,z,1.206915,0,250,250,250,1,houses/images/323.jpg,houses/images/148.jpg,251,Sophia,001,2020-11-18_20h29.24.426,test2,2020.2.5,MacIntel,60
,,,,z,2.889815,0,251,251,251,1,houses/images/324.jpg,houses/images/313.jpg,252,Sophia,001,2020-11-18_20h29.24.426,test2,2020.2.5,MacIntel,60
,,,,z,1.59588,0,252,252,252,1,houses/images/325.jpg,houses/images/11.jpg,253,Sophia,001,2020-11-18_20h29.24.426,test2,2020.2.5,MacIntel,60
,,,,z,2.40976,0,253,253,253,1,houses/images/326.jpg,houses/images/21.jpg,254,Sophia,001,2020-11-18_20h29.24.426,test2,2020.2.5,MacIntel,60
,,,,m,1.844045,0,254,254,254,1,houses/images/327.jpg,houses/images/281.jpg,255,Sophia,001,2020-11-18_20h29.24.426,test2,2020.2.5,MacIntel,60
,,,,m,3.40753,0,255,255,255,1,houses/images/328.jpg,houses/images/172.jpg,256,Sophia,001,2020-11-18_20h29.24.426,test2,2020.2.5,MacIntel,60
,,,,z,1.176285,0,256,256,256,1,houses/images/329.jpg,houses/images/273.jpg,257,Sophia,001,2020-11-18_20h29.24.426,test2,2020.2.5,MacIntel,60
,,,,m,1.881665,0,257,257,257,1,houses/images/33.jpg,houses/images/239.jpg,258,Sophia,001,2020-11-18_20h29.24.426,test2,2020.2.5,MacIntel,60
,,,,z,7.45154,0,258,258,258,1,houses/images/330.jpg,houses/images/333.jpg,259,Sophia,001,2020-11-18_20h29.24.426,test2,2020.2.5,MacIntel,60
,,,,z,1.89245,0,259,259,259,1,houses/images/331.jpg,houses/images/361.jpg,260,Sophia,001,2020-11-18_20h29.24.426,test2,2020.2.5,MacIntel,60
,,,,m,1.317685,0,260,260,260,1,houses/images/332.jpg,houses/images/91.jpg,261,Sophia,001,2020-11-18_20h29.24.426,test2,2020.2.5,MacIntel,60
,,,,m,1.382665,0,261,261,261,1,houses/images/333.jpg,houses/images/158.jpg,262,Sophia,001,2020-11-18_20h29.24.426,test2,2020.2.5,MacIntel,60
,,,,m,5.275925,0,262,262,262,1,houses/images/334.jpg,houses/images/10.jpg,263,Sophia,001,2020-11-18_20h29.24.426,test2,2020.2.5,MacIntel,60
,,,,z,5.23383,0,263,263,263,1,houses/images/335.jpg,houses/images/331.jpg,264,Sophia,001,2020-11-18_20h29.24.426,test2,2020.2.5,MacIntel,60
,,,,z,1.784895,0,264,264,264,1,houses/images/336.jpg,houses/images/171.jpg,265,Sophia,001,2020-11-18_20h29.24.426,test2,2020.2.5,MacIntel,60
,,,,m,6.77835,0,265,265,265,1,houses/images/337.jpg,houses/images/226.jpg,266,Sophia,001,2020-11-18_20h29.24.426,test2,2020.2.5,MacIntel,60
,,,,m,2.590945,0,266,266,266,1,houses/images/238.jpg,houses/images/214.jpg,267,Sophia,001,2020-11-18_20h29.24.426,test2,2020.2.5,MacIntel,60
,,,,m,2.092395,0,267,267,267,1,houses/images/239.jpg,houses/images/130.jpg,268,Sophia,001,2020-11-18_20h29.24.426,test2,2020.2.5,MacIntel,60
,,,,z,4.32303,0,268,268,268,1,houses/images/34.jpg,houses/images/85.jpg,269,Sophia,001,2020-11-18_20h29.24.426,test2,2020.2.5,MacIntel,60
,,,,z,3.292755,0,269,269,269,1,houses/images/340.jpg,houses/images/248.jpg,270,Sophia,001,2020-11-18_20h29.24.426,test2,2020.2.5,MacIntel,60
,,,,z,1.17337,0,270,270,270,1,houses/images/341.jpg,houses/images/215.jpg,271,Sophia,001,2020-11-18_20h29.24.426,test2,2020.2.5,MacIntel,60
,,,,z,1.319665,0,271,271,271,1,houses/images/342.jpg,houses/images/155.jpg,272,Sophia,001,2020-11-18_20h29.24.426,test2,2020.2.5,MacIntel,60
,,,,m,2.349075,0,272,272,272,1,houses/images/343.jpg,houses/images/193.jpg,273,Sophia,001,2020-11-18_20h29.24.426,test2,2020.2.5,MacIntel,60
,,,,z,2.89553,0,273,273,273,1,houses/images/344.jpg,houses/images/324.jpg,274,Sophia,001,2020-11-18_20h29.24.426,test2,2020.2.5,MacIntel,60
,,,,m,1.26676,0,274,274,274,1,houses/images/345.jpg,houses/images/86.jpg,275,Sophia,001,2020-11-18_20h29.24.426,test2,2020.2.5,MacIntel,60
,,,,z,1.175985,0,275,275,275,1,houses/images/246.jpg,houses/images/295.jpg,276,Sophia,001,2020-11-18_20h29.24.426,test2,2020.2.5,MacIntel,60
,,,,z,1.592015,0,276,276,276,1,houses/images/347.jpg,houses/images/292.jpg,277,Sophia,001,2020-11-18_20h29.24.426,test2,2020.2.5,MacIntel,60
,,,,z,18.38345,0,277,277,277,1,houses/images/348.jpg,houses/images/55.jpg,278,Sophia,001,2020-11-18_20h29.24.426,test2,2020.2.5,MacIntel,60
,,,,z,1.032645,0,278,278,278,1,houses/images/349.jpg,houses/images/1.jpg,279,Sophia,001,2020-11-18_20h29.24.426,test2,2020.2.5,MacIntel,60
,,,,z,1.96926,0,279,279,279,1,houses/images/35.jpg,houses/images/73.jpg,280,Sophia,001,2020-11-18_20h29.24.426,test2,2020.2.5,MacIntel,60
,,,,m,1.531735,0,280,280,280,1,houses/images/350.jpg,houses/images/44.jpg,281,Sophia,001,2020-11-18_20h29.24.426,test2,2020.2.5,MacIntel,60
,,,,m,2.666225,0,281,281,281,1,houses/images/351.jpg,houses/images/6.jpg,282,Sophia,001,2020-11-18_20h29.24.426,test2,2020.2.5,MacIntel,60
,,,,z,3.427365,0,282,282,282,1,houses/images/352.jpg,houses/images/20.jpg,283,Sophia,001,2020-11-18_20h29.24.426,test2,2020.2.5,MacIntel,60
,,,,z,3.5292,0,283,283,283,1,houses/images/353.jpg,houses/images/18.jpg,284,Sophia,001,2020-11-18_20h29.24.426,test2,2020.2.5,MacIntel,60
,,,,z,2.73413,0,284,284,284,1,houses/images/354.jpg,houses/images/347.jpg,285,Sophia,001,2020-11-18_20h29.24.426,test2,2020.2.5,MacIntel,60
,,,,z,1.719045,0,285,285,285,1,houses/images/355.jpg,houses/images/27.jpg,286,Sophia,001,2020-11-18_20h29.24.426,test2,2020.2.5,MacIntel,60
,,,,m,3.53099,0,286,286,286,1,houses/images/356.jpg,houses/images/276.jpg,287,Sophia,001,2020-11-18_20h29.24.426,test2,2020.2.5,MacIntel,60
,,,,m,3.027585,0,287,287,287,1,houses/images/357.jpg,houses/images/345.jpg,288,Sophia,001,2020-11-18_20h29.24.426,test2,2020.2.5,MacIntel,60
,,,,z,13.85218,0,288,288,288,1,houses/images/358.jpg,houses/images/235.jpg,289,Sophia,001,2020-11-18_20h29.24.426,test2,2020.2.5,MacIntel,60
,,,,z,4.6326,0,289,289,289,1,houses/images/359.jpg,houses/images/115.jpg,290,Sophia,001,2020-11-18_20h29.24.426,test2,2020.2.5,MacIntel,60
,,,,z,1.851045,0,290,290,290,1,houses/images/36.jpg,houses/images/310.jpg,291,Sophia,001,2020-11-18_20h29.24.426,test2,2020.2.5,MacIntel,60
,,,,z,1.566745,0,291,291,291,1,houses/images/360.jpg,houses/images/93.jpg,292,Sophia,001,2020-11-18_20h29.24.426,test2,2020.2.5,MacIntel,60
,,,,z,1.27676,0,292,292,292,1,houses/images/361.jpg,houses/images/212.jpg,293,Sophia,001,2020-11-18_20h29.24.426,test2,2020.2.5,MacIntel,60
,,,,z,2.664445,0,293,293,293,1,houses/images/62.jpg,houses/images/51.jpg,294,Sophia,001,2020-11-18_20h29.24.426,test2,2020.2.5,MacIntel,60
,,,,z,1.465525,0,294,294,294,1,houses/images/37.jpg,houses/images/108.jpg,295,Sophia,001,2020-11-18_20h29.24.426,test2,2020.2.5,MacIntel,60
,,,,m,3.368235,0,295,295,295,1,houses/images/38.jpg,houses/images/127.jpg,296,Sophia,001,2020-11-18_20h29.24.426,test2,2020.2.5,MacIntel,60
,,,,z,1.866085,0,296,296,296,1,houses/images/39.jpg,houses/images/52.jpg,297,Sophia,001,2020-11-18_20h29.24.426,test2,2020.2.5,MacIntel,60
,,,,z,4.08961,0,297,297,297,1,houses/images/4.jpg,houses/images/318.jpg,298,Sophia,001,2020-11-18_20h29.24.426,test2,2020.2.5,MacIntel,60
,,,,m,2.04154,0,298,298,298,1,houses/images/40.jpg,houses/images/201.jpg,299,Sophia,001,2020-11-18_20h29.24.426,test2,2020.2.5,MacIntel,60
,,,,z,1.76127,0,299,299,299,1,houses/images/41.jpg,houses/images/7.jpg,300,Sophia,001,2020-11-18_20h29.24.426,test2,2020.2.5,MacIntel,60
,,,,m,1.009525,0,300,300,300,1,houses/images/42.jpg,houses/images/340.jpg,301,Sophia,001,2020-11-18_20h29.24.426,test2,2020.2.5,MacIntel,60
,,,,m,1.38343,0,301,301,301,1,houses/images/43.jpg,houses/images/150.jpg,302,Sophia,001,2020-11-18_20h29.24.426,test2,2020.2.5,MacIntel,60
,,,,z,5.232005,0,302,302,302,1,houses/images/44.jpg,houses/images/246.jpg,303,Sophia,001,2020-11-18_20h29.24.426,test2,2020.2.5,MacIntel,60
,,,,z,3.47556,0,303,303,303,1,houses/images/145.jpg,houses/images/18.jpg,304,Sophia,001,2020-11-18_20h29.24.426,test2,2020.2.5,MacIntel,60
,,,,m,1.55617,0,304,304,304,1,houses/images/46.jpg,houses/images/211.jpg,305,Sophia,001,2020-11-18_20h29.24.426,test2,2020.2.5,MacIntel,60
,,,,z,1.45772,0,305,305,305,1,houses/images/47.jpg,houses/images/282.jpg,306,Sophia,001,2020-11-18_20h29.24.426,test2,2020.2.5,MacIntel,60
,,,,m,4.192195,0,306,306,306,1,houses/images/48.jpg,houses/images/145.jpg,307,Sophia,001,2020-11-18_20h29.24.426,test2,2020.2.5,MacIntel,60
,,,,z,2.475405,0,307,307,307,1,houses/images/49.jpg,houses/images/135.jpg,308,Sophia,001,2020-11-18_20h29.24.426,test2,2020.2.5,MacIntel,60
,,,,z,1.617865,0,308,308,308,1,houses/images/5.jpg,houses/images/59.jpg,309,Sophia,001,2020-11-18_20h29.24.426,test2,2020.2.5,MacIntel,60
,,,,z,3.527985,0,309,309,309,1,houses/images/50.jpg,houses/images/164.jpg,310,Sophia,001,2020-11-18_20h29.24.426,test2,2020.2.5,MacIntel,60
,,,,m,2.257425,0,310,310,310,1,houses/images/51.jpg,houses/images/42.jpg,311,Sophia,001,2020-11-18_20h29.24.426,test2,2020.2.5,MacIntel,60
,,,,m,4.659175,0,311,311,311,1,houses/images/52.jpg,houses/images/32.jpg,312,Sophia,001,2020-11-18_20h29.24.426,test2,2020.2.5,MacIntel,60
,,,,z,4.689945,0,312,312,312,1,houses/images/53.jpg,houses/images/357.jpg,313,Sophia,001,2020-11-18_20h29.24.426,test2,2020.2.5,MacIntel,60
,,,,z,8.84971,0,313,313,313,1,houses/images/54.jpg,houses/images/305.jpg,314,Sophia,001,2020-11-18_20h29.24.426,test2,2020.2.5,MacIntel,60
,,,,z,3.95206,0,314,314,314,1,houses/images/55.jpg,houses/images/352.jpg,315,Sophia,001,2020-11-18_20h29.24.426,test2,2020.2.5,MacIntel,60
,,,,z,1.22663,0,315,315,315,1,houses/images/56.jpg,houses/images/273.jpg,316,Sophia,001,2020-11-18_20h29.24.426,test2,2020.2.5,MacIntel,60
,,,,z,2.00829,0,316,316,316,1,houses/images/57.jpg,houses/images/143.jpg,317,Sophia,001,2020-11-18_20h29.24.426,test2,2020.2.5,MacIntel,60
,,,,m,1.934795,0,317,317,317,1,houses/images/58.jpg,houses/images/95.jpg,318,Sophia,001,2020-11-18_20h29.24.426,test2,2020.2.5,MacIntel,60
,,,,z,3.09375,0,318,318,318,1,houses/images/59.jpg,houses/images/244.jpg,319,Sophia,001,2020-11-18_20h29.24.426,test2,2020.2.5,MacIntel,60
,,,,z,6.08526,0,319,319,319,1,houses/images/6.jpg,houses/images/202.jpg,320,Sophia,001,2020-11-18_20h29.24.426,test2,2020.2.5,MacIntel,60
,,,,m,3.885145,0,320,320,320,1,houses/images/60.jpg,houses/images/203.jpg,321,Sophia,001,2020-11-18_20h29.24.426,test2,2020.2.5,MacIntel,60
,,,,m,3.38459,0,321,321,321,1,houses/images/61.jpg,houses/images/123.jpg,322,Sophia,001,2020-11-18_20h29.24.426,test2,2020.2.5,MacIntel,60
,,,,z,6.470665,0,322,322,322,1,houses/images/62.jpg,houses/images/353.jpg,323,Sophia,001,2020-11-18_20h29.24.426,test2,2020.2.5,MacIntel,60
,,,,m,1.95772,0,323,323,323,1,houses/images/63.jpg,houses/images/281.jpg,324,Sophia,001,2020-11-18_20h29.24.426,test2,2020.2.5,MacIntel,60
,,,,m,1.74984,0,324,324,324,1,houses/images/64.jpg,houses/images/280.jpg,325,Sophia,001,2020-11-18_20h29.24.426,test2,2020.2.5,MacIntel,60
,,,,m,2.66898,0,325,325,325,1,houses/images/65.jpg,houses/images/309.jpg,326,Sophia,001,2020-11-18_20h29.24.426,test2,2020.2.5,MacIntel,60
,,,,m,6.363655,0,326,326,326,1,houses/images/66.jpg,houses/images/302.jpg,327,Sophia,001,2020-11-18_20h29.24.426,test2,2020.2.5,MacIntel,60
,,,,m,3.318505,0,327,327,327,1,houses/images/67.jpg,houses/images/300.jpg,328,Sophia,001,2020-11-18_20h29.24.426,test2,2020.2.5,MacIntel,60
,,,,z,1.584915,0,328,328,328,1,houses/images/68.jpg,houses/images/328.jpg,329,Sophia,001,2020-11-18_20h29.24.426,test2,2020.2.5,MacIntel,60
,,,,z,2.64278,0,329,329,329,1,houses/images/69.jpg,houses/images/114.jpg,330,Sophia,001,2020-11-18_20h29.24.426,test2,2020.2.5,MacIntel,60
,,,,m,2.89338,0,330,330,330,1,houses/images/7.jpg,houses/images/31.jpg,331,Sophia,001,2020-11-18_20h29.24.426,test2,2020.2.5,MacIntel,60
,,,,z,5.3497,0,331,331,331,1,houses/images/70.jpg,houses/images/54.jpg,332,Sophia,001,2020-11-18_20h29.24.426,test2,2020.2.5,MacIntel,60
,,,,z,6.02652,0,332,332,332,1,houses/images/71.jpg,houses/images/293.jpg,333,Sophia,001,2020-11-18_20h29.24.426,test2,2020.2.5,MacIntel,60
,,,,m,4.959645,0,333,333,333,1,houses/images/72.jpg,houses/images/37.jpg,334,Sophia,001,2020-11-18_20h29.24.426,test2,2020.2.5,MacIntel,60
,,,,z,3.406845,0,334,334,334,1,houses/images/73.jpg,houses/images/230.jpg,335,Sophia,001,2020-11-18_20h29.24.426,test2,2020.2.5,MacIntel,60
,,,,z,6.75676,0,335,335,335,1,houses/images/74.jpg,houses/images/88.jpg,336,Sophia,001,2020-11-18_20h29.24.426,test2,2020.2.5,MacIntel,60
,,,,m,1.682665,0,336,336,336,1,houses/images/75.jpg,houses/images/161.jpg,337,Sophia,001,2020-11-18_20h29.24.426,test2,2020.2.5,MacIntel,60
,,,,m,1.952995,0,337,337,337,1,houses/images/76.jpg,houses/images/354.jpg,338,Sophia,001,2020-11-18_20h29.24.426,test2,2020.2.5,MacIntel,60
,,,,m,4.301345,0,338,338,338,1,houses/images/77.jpg,houses/images/251.jpg,339,Sophia,001,2020-11-18_20h29.24.426,test2,2020.2.5,MacIntel,60
,,,,z,1.359875,0,339,339,339,1,houses/images/78.jpg,houses/images/143.jpg,340,Sophia,001,2020-11-18_20h29.24.426,test2,2020.2.5,MacIntel,60
,,,,m,3.24347,0,340,340,340,1,houses/images/79.jpg,houses/images/335.jpg,341,Sophia,001,2020-11-18_20h29.24.426,test2,2020.2.5,MacIntel,60
,,,,m,2.826855,0,341,341,341,1,houses/images/8.jpg,houses/images/231.jpg,342,Sophia,001,2020-11-18_20h29.24.426,test2,2020.2.5,MacIntel,60
,,,,z,4.3843,0,342,342,342,1,houses/images/80.jpg,houses/images/69.jpg,343,Sophia,001,2020-11-18_20h29.24.426,test2,2020.2.5,MacIntel,60
,,,,z,7.076815,0,343,343,343,1,houses/images/81.jpg,houses/images/92.jpg,344,Sophia,001,2020-11-18_20h29.24.426,test2,2020.2.5,MacIntel,60
,,,,z,2.02614,0,344,344,344,1,houses/images/82.jpg,houses/images/221.jpg,345,Sophia,001,2020-11-18_20h29.24.426,test2,2020.2.5,MacIntel,60
,,,,z,3.73376,0,345,345,345,1,houses/images/83.jpg,houses/images/196.jpg,346,Sophia,001,2020-11-18_20h29.24.426,test2,2020.2.5,MacIntel,60
,,,,z,1.600375,0,346,346,346,1,houses/images/84.jpg,houses/images/53.jpg,347,Sophia,001,2020-11-18_20h29.24.426,test2,2020.2.5,MacIntel,60
,,,,m,6.877065,0,347,347,347,1,houses/images/85.jpg,houses/images/166.jpg,348,Sophia,001,2020-11-18_20h29.24.426,test2,2020.2.5,MacIntel,60
,,,,z,2.610815,0,348,348,348,1,houses/images/86.jpg,houses/images/266.jpg,349,Sophia,001,2020-11-18_20h29.24.426,test2,2020.2.5,MacIntel,60
,,,,z,8.826035,0,349,349,349,1,houses/images/87.jpg,houses/images/355.jpg,350,Sophia,001,2020-11-18_20h29.24.426,test2,2020.2.5,MacIntel,60
,,,,z,1.789575,0,350,350,350,1,houses/images/88.jpg,houses/images/206.jpg,351,Sophia,001,2020-11-18_20h29.24.426,test2,2020.2.5,MacIntel,60
,,,,z,6.551725,0,351,351,351,1,houses/images/89.jpg,houses/images/241.jpg,352,Sophia,001,2020-11-18_20h29.24.426,test2,2020.2.5,MacIntel,60
,,,,z,5.26369,0,352,352,352,1,houses/images/9.jpg,houses/images/147.jpg,353,Sophia,001,2020-11-18_20h29.24.426,test2,2020.2.5,MacIntel,60
,,,,m,4.882725,0,353,353,353,1,houses/images/90.jpg,houses/images/117.jpg,354,Sophia,001,2020-11-18_20h29.24.426,test2,2020.2.5,MacIntel,60
,,,,m,13.51857,0,354,354,354,1,houses/images/91.jpg,houses/images/34.jpg,355,Sophia,001,2020-11-18_20h29.24.426,test2,2020.2.5,MacIntel,60
,,,,m,9.566425,0,355,355,355,1,houses/images/92.jpg,houses/images/105.jpg,356,Sophia,001,2020-11-18_20h29.24.426,test2,2020.2.5,MacIntel,60
,,,,m,5.145715,0,356,356,356,1,houses/images/93.jpg,houses/images/249.jpg,357,Sophia,001,2020-11-18_20h29.24.426,test2,2020.2.5,MacIntel,60
,,,,z,2.809915,0,357,357,357,1,houses/images/94.jpg,houses/images/265.jpg,358,Sophia,001,2020-11-18_20h29.24.426,test2,2020.2.5,MacIntel,60
,,,,z,1.81689,0,358,358,358,1,houses/images/95.jpg,houses/images/65.jpg,359,Sophia,001,2020-11-18_20h29.24.426,test2,2020.2.5,MacIntel,60
,,,,z,2.032525,0,359,359,359,1,houses/images/96.jpg,houses/images/83.jpg,360,Sophia,001,2020-11-18_20h29.24.426,test2,2020.2.5,MacIntel,60
,,,,z,1.26557,0,360,360,360,1,houses/images/97.jpg,houses/images/165.jpg,361,Sophia,001,2020-11-18_20h29.24.426,test2,2020.2.5,MacIntel,60
,,,,m,1.991995,0,361,361,361,1,houses/images/98.jpg,houses/images/280.jpg,362,Sophia,001,2020-11-18_20h29.24.426,test2,2020.2.5,MacIntel,60
,,,,m,1.350265,0,362,362,362,1,houses/images/199.jpg,houses/images/278.jpg,363,Sophia,001,2020-11-18_20h29.24.426,test2,2020.2.5,MacIntel,60
,,,,m,2.238245,0,363,363,363,1,houses/images/0.jpg,houses/images/297.jpg,364,Sophia,001,2020-11-18_20h29.24.426,test2,2020.2.5,MacIntel,60
,,,,m,2.490795,0,364,364,364,1,houses/images/1.jpg,houses/images/225.jpg,365,Sophia,001,2020-11-18_20h29.24.426,test2,2020.2.5,MacIntel,60
,,,,m,1.377785,0,365,365,365,1,houses/images/10.jpg,houses/images/41.jpg,366,Sophia,001,2020-11-18_20h29.24.426,test2,2020.2.5,MacIntel,60
,,,,z,5.400985,0,366,366,366,1,houses/images/100.jpg,houses/images/19.jpg,367,Sophia,001,2020-11-18_20h29.24.426,test2,2020.2.5,MacIntel,60
,,,,z,1.931165,0,367,367,367,1,houses/images/101.jpg,houses/images/189.jpg,368,Sophia,001,2020-11-18_20h29.24.426,test2,2020.2.5,MacIntel,60
,,,,m,1.2336,0,368,368,368,1,houses/images/102.jpg,houses/images/141.jpg,369,Sophia,001,2020-11-18_20h29.24.426,test2,2020.2.5,MacIntel,60
,,,,z,3.241605,0,369,369,369,1,houses/images/103.jpg,houses/images/212.jpg,370,Sophia,001,2020-11-18_20h29.24.426,test2,2020.2.5,MacIntel,60
,,,,m,2.29377,0,370,370,370,1,houses/images/104.jpg,houses/images/134.jpg,371,Sophia,001,2020-11-18_20h29.24.426,test2,2020.2.5,MacIntel,60
,,,,m,26.24048,0,371,371,371,1,houses/images/105.jpg,houses/images/13.jpg,372,Sophia,001,2020-11-18_20h29.24.426,test2,2020.2.5,MacIntel,60
,,,,z,5.665085,0,372,372,372,1,houses/images/106.jpg,houses/images/258.jpg,373,Sophia,001,2020-11-18_20h29.24.426,test2,2020.2.5,MacIntel,60
,,,,z,4.84144,0,373,373,373,1,houses/images/107.jpg,houses/images/14.jpg,374,Sophia,001,2020-11-18_20h29.24.426,test2,2020.2.5,MacIntel,60
,,,,m,2.091745,0,374,374,374,1,houses/images/108.jpg,houses/images/9.jpg,375,Sophia,001,2020-11-18_20h29.24.426,test2,2020.2.5,MacIntel,60
,,,,z,1.401235,0,375,375,375,1,houses/images/109.jpg,houses/images/106.jpg,376,Sophia,001,2020-11-18_20h29.24.426,test2,2020.2.5,MacIntel,60
,,,,m,1.368955,0,376,376,376,1,houses/images/11.jpg,houses/images/268.jpg,377,Sophia,001,2020-11-18_20h29.24.426,test2,2020.2.5,MacIntel,60
,,,,z,5.535225,0,377,377,377,1,houses/images/210.jpg,houses/images/330.jpg,378,Sophia,001,2020-11-18_20h29.24.426,test2,2020.2.5,MacIntel,60
,,,,z,2.80778,0,378,378,378,1,houses/images/111.jpg,houses/images/343.jpg,379,Sophia,001,2020-11-18_20h29.24.426,test2,2020.2.5,MacIntel,60
,,,,m,3.07556,0,379,379,379,1,houses/images/112.jpg,houses/images/225.jpg,380,Sophia,001,2020-11-18_20h29.24.426,test2,2020.2.5,MacIntel,60
,,,,m,1.43474,0,380,380,380,1,houses/images/113.jpg,houses/images/174.jpg,381,Sophia,001,2020-11-18_20h29.24.426,test2,2020.2.5,MacIntel,60
,,,,z,3.971035,0,381,381,381,1,houses/images/114.jpg,houses/images/25.jpg,382,Sophia,001,2020-11-18_20h29.24.426,test2,2020.2.5,MacIntel,60
,,,,m,1.187855,0,382,382,382,1,houses/images/115.jpg,houses/images/100.jpg,383,Sophia,001,2020-11-18_20h29.24.426,test2,2020.2.5,MacIntel,60
,,,,m,4.82678,0,383,383,383,1,houses/images/116.jpg,houses/images/48.jpg,384,Sophia,001,2020-11-18_20h29.24.426,test2,2020.2.5,MacIntel,60
,,,,m,2.106695,0,384,384,384,1,houses/images/117.jpg,houses/images/296.jpg,385,Sophia,001,2020-11-18_20h29.24.426,test2,2020.2.5,MacIntel,60
,,,,m,4.416015,0,385,385,385,1,houses/images/118.jpg,houses/images/15.jpg,386,Sophia,001,2020-11-18_20h29.24.426,test2,2020.2.5,MacIntel,60
,,,,m,3.700765,0,386,386,386,1,houses/images/119.jpg,houses/images/252.jpg,387,Sophia,001,2020-11-18_20h29.24.426,test2,2020.2.5,MacIntel,60
,,,,z,4.358555,0,387,387,387,1,houses/images/12.jpg,houses/images/290.jpg,388,Sophia,001,2020-11-18_20h29.24.426,test2,2020.2.5,MacIntel,60
,,,,z,1.583885,0,388,388,388,1,houses/images/120.jpg,houses/images/236.jpg,389,Sophia,001,2020-11-18_20h29.24.426,test2,2020.2.5,MacIntel,60
,,,,m,1.22725,0,389,389,389,1,houses/images/121.jpg,houses/images/260.jpg,390,Sophia,001,2020-11-18_20h29.24.426,test2,2020.2.5,MacIntel,60
,,,,z,1.433425,0,390,390,390,1,houses/images/122.jpg,houses/images/56.jpg,391,Sophia,001,2020-11-18_20h29.24.426,test2,2020.2.5,MacIntel,60
,,,,m,3.52563,0,391,391,391,1,houses/images/123.jpg,houses/images/336.jpg,392,Sophia,001,2020-11-18_20h29.24.426,test2,2020.2.5,MacIntel,60
,,,,m,3.19014,0,392,392,392,1,houses/images/124.jpg,houses/images/39.jpg,393,Sophia,001,2020-11-18_20h29.24.426,test2,2020.2.5,MacIntel,60
,,,,m,10.125015,0,393,393,393,1,houses/images/225.jpg,houses/images/302.jpg,394,Sophia,001,2020-11-18_20h29.24.426,test2,2020.2.5,MacIntel,60
,,,,z,2.29146,0,394,394,394,1,houses/images/226.jpg,houses/images/207.jpg,395,Sophia,001,2020-11-18_20h29.24.426,test2,2020.2.5,MacIntel,60
,,,,z,3.881835,0,395,395,395,1,houses/images/127.jpg,houses/images/348.jpg,396,Sophia,001,2020-11-18_20h29.24.426,test2,2020.2.5,MacIntel,60
,,,,z,1.938755,0,396,396,396,1,houses/images/128.jpg,houses/images/151.jpg,397,Sophia,001,2020-11-18_20h29.24.426,test2,2020.2.5,MacIntel,60
,,,,m,1.558545,0,397,397,397,1,houses/images/129.jpg,houses/images/315.jpg,398,Sophia,001,2020-11-18_20h29.24.426,test2,2020.2.5,MacIntel,60
,,,,m,1.64699,0,398,398,398,1,houses/images/13.jpg,houses/images/63.jpg,399,Sophia,001,2020-11-18_20h29.24.426,test2,2020.2.5,MacIntel,60
,,,,m,1.4406,0,399,399,399,1,houses/images/307.jpg,houses/images/172.jpg,400,Sophia,001,2020-11-18_20h29.24.426,test2,2020.2.5,MacIntel,60
