key_resp.keys,key_resp.rt,key_resp_3.keys,key_resp_3.rt,key_resp_2.keys,key_resp_2.rt,trials.thisRepN,trials.thisTrialN,trials.thisN,trials.thisIndex,trials.ran,image_left,image_right,trial_num,participant,session,date,expName,psychopyVersion,OS,frameRate
space,1.1,space,0.734,z,4.316,0,0,0,0,1,houses/images/0.jpg,houses/images/349.jpg,1,xxr,001,2020-11-19_21h50.02.695,test2,2020.2.5,MacIntel,60
,,,,z,0.937,0,1,1,1,1,houses/images/1.jpg,houses/images/194.jpg,2,xxr,001,2020-11-19_21h50.02.695,test2,2020.2.5,MacIntel,60
,,,,z,0.672,0,2,2,2,1,houses/images/10.jpg,houses/images/159.jpg,3,xxr,001,2020-11-19_21h50.02.695,test2,2020.2.5,MacIntel,60
,,,,m,0.643,0,3,3,3,1,houses/images/100.jpg,houses/images/42.jpg,4,xxr,001,2020-11-19_21h50.02.695,test2,2020.2.5,MacIntel,60
,,,,z,0.452,0,4,4,4,1,houses/images/101.jpg,houses/images/240.jpg,5,xxr,001,2020-11-19_21h50.02.695,test2,2020.2.5,MacIntel,60
,,,,m,0.402,0,5,5,5,1,houses/images/102.jpg,houses/images/201.jpg,6,xxr,001,2020-11-19_21h50.02.695,test2,2020.2.5,MacIntel,60
,,,,z,0.377,0,6,6,6,1,houses/images/103.jpg,houses/images/223.jpg,7,xxr,001,2020-11-19_21h50.02.695,test2,2020.2.5,MacIntel,60
,,,,m,0.327,0,7,7,7,1,houses/images/104.jpg,houses/images/46.jpg,8,xxr,001,2020-11-19_21h50.02.695,test2,2020.2.5,MacIntel,60
,,,,m,0.422,0,8,8,8,1,houses/images/105.jpg,houses/images/109.jpg,9,xxr,001,2020-11-19_21h50.02.695,test2,2020.2.5,MacIntel,60
,,,,m,0.461,0,9,9,9,1,houses/images/106.jpg,houses/images/12.jpg,10,xxr,001,2020-11-19_21h50.02.695,test2,2020.2.5,MacIntel,60
,,,,m,0.444,0,10,10,10,1,houses/images/107.jpg,houses/images/358.jpg,11,xxr,001,2020-11-19_21h50.02.695,test2,2020.2.5,MacIntel,60
,,,,z,0.452,0,11,11,11,1,houses/images/108.jpg,houses/images/197.jpg,12,xxr,001,2020-11-19_21h50.02.695,test2,2020.2.5,MacIntel,60
,,,,m,0.367,0,12,12,12,1,houses/images/109.jpg,houses/images/133.jpg,13,xxr,001,2020-11-19_21h50.02.695,test2,2020.2.5,MacIntel,60
,,,,z,0.373,0,13,13,13,1,houses/images/11.jpg,houses/images/286.jpg,14,xxr,001,2020-11-19_21h50.02.695,test2,2020.2.5,MacIntel,60
,,,,m,0.316,0,14,14,14,1,houses/images/210.jpg,houses/images/33.jpg,15,xxr,001,2020-11-19_21h50.02.695,test2,2020.2.5,MacIntel,60
,,,,m,0.366,0,15,15,15,1,houses/images/111.jpg,houses/images/156.jpg,16,xxr,001,2020-11-19_21h50.02.695,test2,2020.2.5,MacIntel,60
,,,,m,0.456,0,16,16,16,1,houses/images/112.jpg,houses/images/128.jpg,17,xxr,001,2020-11-19_21h50.02.695,test2,2020.2.5,MacIntel,60
,,,,z,0.421,0,17,17,17,1,houses/images/113.jpg,houses/images/306.jpg,18,xxr,001,2020-11-19_21h50.02.695,test2,2020.2.5,MacIntel,60
,,,,m,0.356,0,18,18,18,1,houses/images/114.jpg,houses/images/272.jpg,19,xxr,001,2020-11-19_21h50.02.695,test2,2020.2.5,MacIntel,60
,,,,m,0.511,0,19,19,19,1,houses/images/115.jpg,houses/images/112.jpg,20,xxr,001,2020-11-19_21h50.02.695,test2,2020.2.5,MacIntel,60
,,,,z,0.521,0,20,20,20,1,houses/images/116.jpg,houses/images/101.jpg,21,xxr,001,2020-11-19_21h50.02.695,test2,2020.2.5,MacIntel,60
,,,,m,0.346,0,21,21,21,1,houses/images/117.jpg,houses/images/298.jpg,22,xxr,001,2020-11-19_21h50.02.695,test2,2020.2.5,MacIntel,60
,,,,z,0.358,0,22,22,22,1,houses/images/118.jpg,houses/images/80.jpg,23,xxr,001,2020-11-19_21h50.02.695,test2,2020.2.5,MacIntel,60
,,,,m,0.341,0,23,23,23,1,houses/images/119.jpg,houses/images/329.jpg,24,xxr,001,2020-11-19_21h50.02.695,test2,2020.2.5,MacIntel,60
,,,,m,0.531,0,24,24,24,1,houses/images/12.jpg,houses/images/320.jpg,25,xxr,001,2020-11-19_21h50.02.695,test2,2020.2.5,MacIntel,60
,,,,m,0.534,0,25,25,25,1,houses/images/120.jpg,houses/images/24.jpg,26,xxr,001,2020-11-19_21h50.02.695,test2,2020.2.5,MacIntel,60
,,,,m,0.464,0,26,26,26,1,houses/images/121.jpg,houses/images/341.jpg,27,xxr,001,2020-11-19_21h50.02.695,test2,2020.2.5,MacIntel,60
,,,,m,0.39,0,27,27,27,1,houses/images/122.jpg,houses/images/38.jpg,28,xxr,001,2020-11-19_21h50.02.695,test2,2020.2.5,MacIntel,60
,,,,m,0.467,0,28,28,28,1,houses/images/123.jpg,houses/images/98.jpg,29,xxr,001,2020-11-19_21h50.02.695,test2,2020.2.5,MacIntel,60
,,,,m,0.581,0,29,29,29,1,houses/images/124.jpg,houses/images/213.jpg,30,xxr,001,2020-11-19_21h50.02.695,test2,2020.2.5,MacIntel,60
,,,,m,1.002,0,30,30,30,1,houses/images/225.jpg,houses/images/208.jpg,31,xxr,001,2020-11-19_21h50.02.695,test2,2020.2.5,MacIntel,60
,,,,m,0.544,0,31,31,31,1,houses/images/226.jpg,houses/images/210.jpg,32,xxr,001,2020-11-19_21h50.02.695,test2,2020.2.5,MacIntel,60
,,,,z,0.536,0,32,32,32,1,houses/images/127.jpg,houses/images/90.jpg,33,xxr,001,2020-11-19_21h50.02.695,test2,2020.2.5,MacIntel,60
,,,,m,0.436,0,33,33,33,1,houses/images/128.jpg,houses/images/113.jpg,34,xxr,001,2020-11-19_21h50.02.695,test2,2020.2.5,MacIntel,60
,,,,z,0.367,0,34,34,34,1,houses/images/129.jpg,houses/images/232.jpg,35,xxr,001,2020-11-19_21h50.02.695,test2,2020.2.5,MacIntel,60
,,,,m,0.303,0,35,35,35,1,houses/images/13.jpg,houses/images/359.jpg,36,xxr,001,2020-11-19_21h50.02.695,test2,2020.2.5,MacIntel,60
,,,,z,0.349,0,36,36,36,1,houses/images/130.jpg,houses/images/187.jpg,37,xxr,001,2020-11-19_21h50.02.695,test2,2020.2.5,MacIntel,60
,,,,m,0.261,0,37,37,37,1,houses/images/131.jpg,houses/images/275.jpg,38,xxr,001,2020-11-19_21h50.02.695,test2,2020.2.5,MacIntel,60
,,,,z,0.379,0,38,38,38,1,houses/images/132.jpg,houses/images/162.jpg,39,xxr,001,2020-11-19_21h50.02.695,test2,2020.2.5,MacIntel,60
,,,,z,0.469,0,39,39,39,1,houses/images/133.jpg,houses/images/311.jpg,40,xxr,001,2020-11-19_21h50.02.695,test2,2020.2.5,MacIntel,60
,,,,m,0.373,0,40,40,40,1,houses/images/134.jpg,houses/images/277.jpg,41,xxr,001,2020-11-19_21h50.02.695,test2,2020.2.5,MacIntel,60
,,,,z,0.4,0,41,41,41,1,houses/images/135.jpg,houses/images/71.jpg,42,xxr,001,2020-11-19_21h50.02.695,test2,2020.2.5,MacIntel,60
,,,,m,0.33,0,42,42,42,1,houses/images/236.jpg,houses/images/72.jpg,43,xxr,001,2020-11-19_21h50.02.695,test2,2020.2.5,MacIntel,60
,,,,z,0.417,0,43,43,43,1,houses/images/137.jpg,houses/images/246.jpg,44,xxr,001,2020-11-19_21h50.02.695,test2,2020.2.5,MacIntel,60
,,,,m,0.456,0,44,44,44,1,houses/images/138.jpg,houses/images/174.jpg,45,xxr,001,2020-11-19_21h50.02.695,test2,2020.2.5,MacIntel,60
,,,,m,0.577,0,45,45,45,1,houses/images/239.jpg,houses/images/292.jpg,46,xxr,001,2020-11-19_21h50.02.695,test2,2020.2.5,MacIntel,60
,,,,z,0.484,0,46,46,46,1,houses/images/14.jpg,houses/images/194.jpg,47,xxr,001,2020-11-19_21h50.02.695,test2,2020.2.5,MacIntel,60
,,,,m,0.565,0,47,47,47,1,houses/images/240.jpg,houses/images/180.jpg,48,xxr,001,2020-11-19_21h50.02.695,test2,2020.2.5,MacIntel,60
,,,,m,0.641,0,48,48,48,1,houses/images/141.jpg,houses/images/262.jpg,49,xxr,001,2020-11-19_21h50.02.695,test2,2020.2.5,MacIntel,60
,,,,z,0.547,0,49,49,49,1,houses/images/42.jpg,houses/images/118.jpg,50,xxr,001,2020-11-19_21h50.02.695,test2,2020.2.5,MacIntel,60
,,,,m,0.448,0,50,50,50,1,houses/images/143.jpg,houses/images/316.jpg,51,xxr,001,2020-11-19_21h50.02.695,test2,2020.2.5,MacIntel,60
,,,,z,0.322,0,51,51,51,1,houses/images/144.jpg,houses/images/29.jpg,52,xxr,001,2020-11-19_21h50.02.695,test2,2020.2.5,MacIntel,60
,,,,m,0.426,0,52,52,52,1,houses/images/145.jpg,houses/images/146.jpg,53,xxr,001,2020-11-19_21h50.02.695,test2,2020.2.5,MacIntel,60
,,,,z,0.338,0,53,53,53,1,houses/images/146.jpg,houses/images/342.jpg,54,xxr,001,2020-11-19_21h50.02.695,test2,2020.2.5,MacIntel,60
,,,,m,0.322,0,54,54,54,1,houses/images/147.jpg,houses/images/120.jpg,55,xxr,001,2020-11-19_21h50.02.695,test2,2020.2.5,MacIntel,60
,,,,m,0.387,0,55,55,55,1,houses/images/148.jpg,houses/images/204.jpg,56,xxr,001,2020-11-19_21h50.02.695,test2,2020.2.5,MacIntel,60
,,,,m,0.365,0,56,56,56,1,houses/images/149.jpg,houses/images/292.jpg,57,xxr,001,2020-11-19_21h50.02.695,test2,2020.2.5,MacIntel,60
,,,,z,0.488,0,57,57,57,1,houses/images/15.jpg,houses/images/191.jpg,58,xxr,001,2020-11-19_21h50.02.695,test2,2020.2.5,MacIntel,60
,,,,m,0.495,0,58,58,58,1,houses/images/150.jpg,houses/images/318.jpg,59,xxr,001,2020-11-19_21h50.02.695,test2,2020.2.5,MacIntel,60
,,,,z,0.372,0,59,59,59,1,houses/images/151.jpg,houses/images/255.jpg,60,xxr,001,2020-11-19_21h50.02.695,test2,2020.2.5,MacIntel,60
,,,,m,0.365,0,60,60,60,1,houses/images/152.jpg,houses/images/261.jpg,61,xxr,001,2020-11-19_21h50.02.695,test2,2020.2.5,MacIntel,60
,,,,z,0.385,0,61,61,61,1,houses/images/253.jpg,houses/images/129.jpg,62,xxr,001,2020-11-19_21h50.02.695,test2,2020.2.5,MacIntel,60
,,,,m,0.448,0,62,62,62,1,houses/images/154.jpg,houses/images/36.jpg,63,xxr,001,2020-11-19_21h50.02.695,test2,2020.2.5,MacIntel,60
,,,,z,0.333,0,63,63,63,1,houses/images/155.jpg,houses/images/210.jpg,64,xxr,001,2020-11-19_21h50.02.695,test2,2020.2.5,MacIntel,60
,,,,m,0.459,0,64,64,64,1,houses/images/156.jpg,houses/images/132.jpg,65,xxr,001,2020-11-19_21h50.02.695,test2,2020.2.5,MacIntel,60
,,,,m,0.506,0,65,65,65,1,houses/images/157.jpg,houses/images/70.jpg,66,xxr,001,2020-11-19_21h50.02.695,test2,2020.2.5,MacIntel,60
,,,,z,0.357,0,66,66,66,1,houses/images/158.jpg,houses/images/199.jpg,67,xxr,001,2020-11-19_21h50.02.695,test2,2020.2.5,MacIntel,60
,,,,m,0.303,0,67,67,67,1,houses/images/159.jpg,houses/images/226.jpg,68,xxr,001,2020-11-19_21h50.02.695,test2,2020.2.5,MacIntel,60
,,,,z,0.326,0,68,68,68,1,houses/images/16.jpg,houses/images/50.jpg,69,xxr,001,2020-11-19_21h50.02.695,test2,2020.2.5,MacIntel,60
,,,,m,0.221,0,69,69,69,1,houses/images/160.jpg,houses/images/239.jpg,70,xxr,001,2020-11-19_21h50.02.695,test2,2020.2.5,MacIntel,60
,,,,z,0.273,0,70,70,70,1,houses/images/161.jpg,houses/images/289.jpg,71,xxr,001,2020-11-19_21h50.02.695,test2,2020.2.5,MacIntel,60
,,,,m,0.238,0,71,71,71,1,houses/images/162.jpg,houses/images/325.jpg,72,xxr,001,2020-11-19_21h50.02.695,test2,2020.2.5,MacIntel,60
,,,,z,0.265,0,72,72,72,1,houses/images/163.jpg,houses/images/259.jpg,73,xxr,001,2020-11-19_21h50.02.695,test2,2020.2.5,MacIntel,60
,,,,m,0.227,0,73,73,73,1,houses/images/164.jpg,houses/images/316.jpg,74,xxr,001,2020-11-19_21h50.02.695,test2,2020.2.5,MacIntel,60
,,,,z,0.203,0,74,74,74,1,houses/images/165.jpg,houses/images/311.jpg,75,xxr,001,2020-11-19_21h50.02.695,test2,2020.2.5,MacIntel,60
,,,,m,0.156,0,75,75,75,1,houses/images/166.jpg,houses/images/246.jpg,76,xxr,001,2020-11-19_21h50.02.695,test2,2020.2.5,MacIntel,60
,,,,z,0.091,0,76,76,76,1,houses/images/167.jpg,houses/images/269.jpg,77,xxr,001,2020-11-19_21h50.02.695,test2,2020.2.5,MacIntel,60
,,,,m,0.187,0,77,77,77,1,houses/images/168.jpg,houses/images/360.jpg,78,xxr,001,2020-11-19_21h50.02.695,test2,2020.2.5,MacIntel,60
,,,,z,0.118,0,78,78,78,1,houses/images/169.jpg,houses/images/116.jpg,79,xxr,001,2020-11-19_21h50.02.695,test2,2020.2.5,MacIntel,60
,,,,m,0.155,0,79,79,79,1,houses/images/17.jpg,houses/images/245.jpg,80,xxr,001,2020-11-19_21h50.02.695,test2,2020.2.5,MacIntel,60
,,,,z,0.138,0,80,80,80,1,houses/images/170.jpg,houses/images/152.jpg,81,xxr,001,2020-11-19_21h50.02.695,test2,2020.2.5,MacIntel,60
,,,,m,0.168,0,81,81,81,1,houses/images/171.jpg,houses/images/77.jpg,82,xxr,001,2020-11-19_21h50.02.695,test2,2020.2.5,MacIntel,60
,,,,z,0.215,0,82,82,82,1,houses/images/172.jpg,houses/images/154.jpg,83,xxr,001,2020-11-19_21h50.02.695,test2,2020.2.5,MacIntel,60
,,,,m,0.27,0,83,83,83,1,houses/images/273.jpg,houses/images/210.jpg,84,xxr,001,2020-11-19_21h50.02.695,test2,2020.2.5,MacIntel,60
,,,,z,0.282,0,84,84,84,1,houses/images/174.jpg,houses/images/121.jpg,85,xxr,001,2020-11-19_21h50.02.695,test2,2020.2.5,MacIntel,60
,,,,z,0.281,0,85,85,85,1,houses/images/175.jpg,houses/images/47.jpg,86,xxr,001,2020-11-19_21h50.02.695,test2,2020.2.5,MacIntel,60
,,,,z,0.228,0,86,86,86,1,houses/images/176.jpg,houses/images/328.jpg,87,xxr,001,2020-11-19_21h50.02.695,test2,2020.2.5,MacIntel,60
,,,,z,0.222,0,87,87,87,1,houses/images/177.jpg,houses/images/35.jpg,88,xxr,001,2020-11-19_21h50.02.695,test2,2020.2.5,MacIntel,60
,,,,z,0.207,0,88,88,88,1,houses/images/178.jpg,houses/images/299.jpg,89,xxr,001,2020-11-19_21h50.02.695,test2,2020.2.5,MacIntel,60
,,,,m,0.208,0,89,89,89,1,houses/images/179.jpg,houses/images/283.jpg,90,xxr,001,2020-11-19_21h50.02.695,test2,2020.2.5,MacIntel,60
,,,,m,0.199,0,90,90,90,1,houses/images/18.jpg,houses/images/182.jpg,91,xxr,001,2020-11-19_21h50.02.695,test2,2020.2.5,MacIntel,60
,,,,m,0.194,0,91,91,91,1,houses/images/180.jpg,houses/images/327.jpg,92,xxr,001,2020-11-19_21h50.02.695,test2,2020.2.5,MacIntel,60
,,,,z,0.377,0,92,92,92,1,houses/images/281.jpg,houses/images/334.jpg,93,xxr,001,2020-11-19_21h50.02.695,test2,2020.2.5,MacIntel,60
,,,,m,0.315,0,93,93,93,1,houses/images/182.jpg,houses/images/75.jpg,94,xxr,001,2020-11-19_21h50.02.695,test2,2020.2.5,MacIntel,60
,,,,z,0.298,0,94,94,94,1,houses/images/183.jpg,houses/images/137.jpg,95,xxr,001,2020-11-19_21h50.02.695,test2,2020.2.5,MacIntel,60
,,,,m,0.302,0,95,95,95,1,houses/images/184.jpg,houses/images/344.jpg,96,xxr,001,2020-11-19_21h50.02.695,test2,2020.2.5,MacIntel,60
,,,,z,0.32,0,96,96,96,1,houses/images/185.jpg,houses/images/285.jpg,97,xxr,001,2020-11-19_21h50.02.695,test2,2020.2.5,MacIntel,60
,,,,m,0.287,0,97,97,97,1,houses/images/186.jpg,houses/images/230.jpg,98,xxr,001,2020-11-19_21h50.02.695,test2,2020.2.5,MacIntel,60
,,,,z,0.271,0,98,98,98,1,houses/images/187.jpg,houses/images/3.jpg,99,xxr,001,2020-11-19_21h50.02.695,test2,2020.2.5,MacIntel,60
,,,,m,0.245,0,99,99,99,1,houses/images/188.jpg,houses/images/304.jpg,100,xxr,001,2020-11-19_21h50.02.695,test2,2020.2.5,MacIntel,60
,,,,z,0.286,0,100,100,100,1,houses/images/189.jpg,houses/images/17.jpg,101,xxr,001,2020-11-19_21h50.02.695,test2,2020.2.5,MacIntel,60
,,,,m,0.241,0,101,101,101,1,houses/images/19.jpg,houses/images/351.jpg,102,xxr,001,2020-11-19_21h50.02.695,test2,2020.2.5,MacIntel,60
,,,,z,0.349,0,102,102,102,1,houses/images/190.jpg,houses/images/307.jpg,103,xxr,001,2020-11-19_21h50.02.695,test2,2020.2.5,MacIntel,60
,,,,m,0.352,0,103,103,103,1,houses/images/191.jpg,houses/images/326.jpg,104,xxr,001,2020-11-19_21h50.02.695,test2,2020.2.5,MacIntel,60
,,,,z,0.352,0,104,104,104,1,houses/images/292.jpg,houses/images/240.jpg,105,xxr,001,2020-11-19_21h50.02.695,test2,2020.2.5,MacIntel,60
,,,,m,0.335,0,105,105,105,1,houses/images/193.jpg,houses/images/243.jpg,106,xxr,001,2020-11-19_21h50.02.695,test2,2020.2.5,MacIntel,60
,,,,z,0.237,0,106,106,106,1,houses/images/194.jpg,houses/images/291.jpg,107,xxr,001,2020-11-19_21h50.02.695,test2,2020.2.5,MacIntel,60
,,,,m,0.197,0,107,107,107,1,houses/images/195.jpg,houses/images/361.jpg,108,xxr,001,2020-11-19_21h50.02.695,test2,2020.2.5,MacIntel,60
,,,,z,0.305,0,108,108,108,1,houses/images/196.jpg,houses/images/30.jpg,109,xxr,001,2020-11-19_21h50.02.695,test2,2020.2.5,MacIntel,60
,,,,m,0.288,0,109,109,109,1,houses/images/197.jpg,houses/images/22.jpg,110,xxr,001,2020-11-19_21h50.02.695,test2,2020.2.5,MacIntel,60
,,,,m,0.284,0,110,110,110,1,houses/images/198.jpg,houses/images/250.jpg,111,xxr,001,2020-11-19_21h50.02.695,test2,2020.2.5,MacIntel,60
,,,,m,0.305,0,111,111,111,1,houses/images/199.jpg,houses/images/323.jpg,112,xxr,001,2020-11-19_21h50.02.695,test2,2020.2.5,MacIntel,60
,,,,m,0.5,0,112,112,112,1,houses/images/2.jpg,houses/images/187.jpg,113,xxr,001,2020-11-19_21h50.02.695,test2,2020.2.5,MacIntel,60
,,,,m,0.238,0,113,113,113,1,houses/images/20.jpg,houses/images/100.jpg,114,xxr,001,2020-11-19_21h50.02.695,test2,2020.2.5,MacIntel,60
,,,,m,0.328,0,114,114,114,1,houses/images/200.jpg,houses/images/238.jpg,115,xxr,001,2020-11-19_21h50.02.695,test2,2020.2.5,MacIntel,60
,,,,z,0.278,0,115,115,115,1,houses/images/201.jpg,houses/images/58.jpg,116,xxr,001,2020-11-19_21h50.02.695,test2,2020.2.5,MacIntel,60
,,,,z,0.414,0,116,116,116,1,houses/images/202.jpg,houses/images/205.jpg,117,xxr,001,2020-11-19_21h50.02.695,test2,2020.2.5,MacIntel,60
,,,,m,0.258,0,117,117,117,1,houses/images/203.jpg,houses/images/40.jpg,118,xxr,001,2020-11-19_21h50.02.695,test2,2020.2.5,MacIntel,60
,,,,z,0.264,0,118,118,118,1,houses/images/204.jpg,houses/images/64.jpg,119,xxr,001,2020-11-19_21h50.02.695,test2,2020.2.5,MacIntel,60
,,,,m,0.224,0,119,119,119,1,houses/images/205.jpg,houses/images/155.jpg,120,xxr,001,2020-11-19_21h50.02.695,test2,2020.2.5,MacIntel,60
,,,,z,0.279,0,120,120,120,1,houses/images/206.jpg,houses/images/199.jpg,121,xxr,001,2020-11-19_21h50.02.695,test2,2020.2.5,MacIntel,60
,,,,m,0.264,0,121,121,121,1,houses/images/207.jpg,houses/images/233.jpg,122,xxr,001,2020-11-19_21h50.02.695,test2,2020.2.5,MacIntel,60
,,,,z,0.253,0,122,122,122,1,houses/images/208.jpg,houses/images/8.jpg,123,xxr,001,2020-11-19_21h50.02.695,test2,2020.2.5,MacIntel,60
,,,,m,0.278,0,123,123,123,1,houses/images/209.jpg,houses/images/167.jpg,124,xxr,001,2020-11-19_21h50.02.695,test2,2020.2.5,MacIntel,60
,,,,m,0.296,0,124,124,124,1,houses/images/21.jpg,houses/images/103.jpg,125,xxr,001,2020-11-19_21h50.02.695,test2,2020.2.5,MacIntel,60
,,,,z,0.417,0,125,125,125,1,houses/images/210.jpg,houses/images/104.jpg,126,xxr,001,2020-11-19_21h50.02.695,test2,2020.2.5,MacIntel,60
,,,,m,0.298,0,126,126,126,1,houses/images/211.jpg,houses/images/327.jpg,127,xxr,001,2020-11-19_21h50.02.695,test2,2020.2.5,MacIntel,60
,,,,m,0.284,0,127,127,127,1,houses/images/212.jpg,houses/images/253.jpg,128,xxr,001,2020-11-19_21h50.02.695,test2,2020.2.5,MacIntel,60
,,,,z,0.299,0,128,128,128,1,houses/images/213.jpg,houses/images/26.jpg,129,xxr,001,2020-11-19_21h50.02.695,test2,2020.2.5,MacIntel,60
,,,,m,0.259,0,129,129,129,1,houses/images/214.jpg,houses/images/198.jpg,130,xxr,001,2020-11-19_21h50.02.695,test2,2020.2.5,MacIntel,60
,,,,z,0.183,0,130,130,130,1,houses/images/215.jpg,houses/images/4.jpg,131,xxr,001,2020-11-19_21h50.02.695,test2,2020.2.5,MacIntel,60
,,,,m,0.227,0,131,131,131,1,houses/images/316.jpg,houses/images/62.jpg,132,xxr,001,2020-11-19_21h50.02.695,test2,2020.2.5,MacIntel,60
,,,,m,0.322,0,132,132,132,1,houses/images/217.jpg,houses/images/114.jpg,133,xxr,001,2020-11-19_21h50.02.695,test2,2020.2.5,MacIntel,60
,,,,z,0.314,0,133,133,133,1,houses/images/318.jpg,houses/images/308.jpg,134,xxr,001,2020-11-19_21h50.02.695,test2,2020.2.5,MacIntel,60
,,,,m,0.444,0,134,134,134,1,houses/images/219.jpg,houses/images/254.jpg,135,xxr,001,2020-11-19_21h50.02.695,test2,2020.2.5,MacIntel,60
,,,,m,0.362,0,135,135,135,1,houses/images/22.jpg,houses/images/170.jpg,136,xxr,001,2020-11-19_21h50.02.695,test2,2020.2.5,MacIntel,60
,,,,z,0.315,0,136,136,136,1,houses/images/220.jpg,houses/images/179.jpg,137,xxr,001,2020-11-19_21h50.02.695,test2,2020.2.5,MacIntel,60
,,,,m,0.292,0,137,137,137,1,houses/images/221.jpg,houses/images/238.jpg,138,xxr,001,2020-11-19_21h50.02.695,test2,2020.2.5,MacIntel,60
,,,,z,0.35,0,138,138,138,1,houses/images/222.jpg,houses/images/256.jpg,139,xxr,001,2020-11-19_21h50.02.695,test2,2020.2.5,MacIntel,60
,,,,m,0.443,0,139,139,139,1,houses/images/223.jpg,houses/images/322.jpg,140,xxr,001,2020-11-19_21h50.02.695,test2,2020.2.5,MacIntel,60
,,,,z,0.33,0,140,140,140,1,houses/images/224.jpg,houses/images/209.jpg,141,xxr,001,2020-11-19_21h50.02.695,test2,2020.2.5,MacIntel,60
,,,,m,0.382,0,141,141,141,1,houses/images/225.jpg,houses/images/219.jpg,142,xxr,001,2020-11-19_21h50.02.695,test2,2020.2.5,MacIntel,60
,,,,z,0.337,0,142,142,142,1,houses/images/226.jpg,houses/images/79.jpg,143,xxr,001,2020-11-19_21h50.02.695,test2,2020.2.5,MacIntel,60
,,,,m,0.312,0,143,143,143,1,houses/images/227.jpg,houses/images/279.jpg,144,xxr,001,2020-11-19_21h50.02.695,test2,2020.2.5,MacIntel,60
,,,,m,0.486,0,144,144,144,1,houses/images/228.jpg,houses/images/111.jpg,145,xxr,001,2020-11-19_21h50.02.695,test2,2020.2.5,MacIntel,60
,,,,z,0.488,0,145,145,145,1,houses/images/229.jpg,houses/images/257.jpg,146,xxr,001,2020-11-19_21h50.02.695,test2,2020.2.5,MacIntel,60
,,,,m,0.351,0,146,146,146,1,houses/images/23.jpg,houses/images/318.jpg,147,xxr,001,2020-11-19_21h50.02.695,test2,2020.2.5,MacIntel,60
,,,,z,0.345,0,147,147,147,1,houses/images/230.jpg,houses/images/312.jpg,148,xxr,001,2020-11-19_21h50.02.695,test2,2020.2.5,MacIntel,60
,,,,m,0.356,0,148,148,148,1,houses/images/231.jpg,houses/images/253.jpg,149,xxr,001,2020-11-19_21h50.02.695,test2,2020.2.5,MacIntel,60
,,,,z,0.374,0,149,149,149,1,houses/images/232.jpg,houses/images/236.jpg,150,xxr,001,2020-11-19_21h50.02.695,test2,2020.2.5,MacIntel,60
,,,,z,0.396,0,150,150,150,1,houses/images/233.jpg,houses/images/66.jpg,151,xxr,001,2020-11-19_21h50.02.695,test2,2020.2.5,MacIntel,60
,,,,m,0.438,0,151,151,151,1,houses/images/234.jpg,houses/images/138.jpg,152,xxr,001,2020-11-19_21h50.02.695,test2,2020.2.5,MacIntel,60
,,,,z,0.312,0,152,152,152,1,houses/images/235.jpg,houses/images/124.jpg,153,xxr,001,2020-11-19_21h50.02.695,test2,2020.2.5,MacIntel,60
,,,,m,0.341,0,153,153,153,1,houses/images/236.jpg,houses/images/160.jpg,154,xxr,001,2020-11-19_21h50.02.695,test2,2020.2.5,MacIntel,60
,,,,z,0.54,0,154,154,154,1,houses/images/237.jpg,houses/images/314.jpg,155,xxr,001,2020-11-19_21h50.02.695,test2,2020.2.5,MacIntel,60
,,,,m,0.416,0,155,155,155,1,houses/images/238.jpg,houses/images/145.jpg,156,xxr,001,2020-11-19_21h50.02.695,test2,2020.2.5,MacIntel,60
,,,,z,0.32,0,156,156,156,1,houses/images/239.jpg,houses/images/195.jpg,157,xxr,001,2020-11-19_21h50.02.695,test2,2020.2.5,MacIntel,60
,,,,m,0.312,0,157,157,157,1,houses/images/24.jpg,houses/images/0.jpg,158,xxr,001,2020-11-19_21h50.02.695,test2,2020.2.5,MacIntel,60
,,,,m,0.548,0,158,158,158,1,houses/images/240.jpg,houses/images/81.jpg,159,xxr,001,2020-11-19_21h50.02.695,test2,2020.2.5,MacIntel,60
,,,,z,0.403,0,159,159,159,1,houses/images/241.jpg,houses/images/226.jpg,160,xxr,001,2020-11-19_21h50.02.695,test2,2020.2.5,MacIntel,60
,,,,m,0.348,0,160,160,160,1,houses/images/342.jpg,houses/images/319.jpg,161,xxr,001,2020-11-19_21h50.02.695,test2,2020.2.5,MacIntel,60
,,,,z,0.316,0,161,161,161,1,houses/images/243.jpg,houses/images/23.jpg,162,xxr,001,2020-11-19_21h50.02.695,test2,2020.2.5,MacIntel,60
,,,,m,0.27,0,162,162,162,1,houses/images/244.jpg,houses/images/146.jpg,163,xxr,001,2020-11-19_21h50.02.695,test2,2020.2.5,MacIntel,60
,,,,m,0.396,0,163,163,163,1,houses/images/245.jpg,houses/images/28.jpg,164,xxr,001,2020-11-19_21h50.02.695,test2,2020.2.5,MacIntel,60
,,,,z,0.338,0,164,164,164,1,houses/images/246.jpg,houses/images/157.jpg,165,xxr,001,2020-11-19_21h50.02.695,test2,2020.2.5,MacIntel,60
,,,,m,0.318,0,165,165,165,1,houses/images/247.jpg,houses/images/2.jpg,166,xxr,001,2020-11-19_21h50.02.695,test2,2020.2.5,MacIntel,60
,,,,m,0.439,0,166,166,166,1,houses/images/248.jpg,houses/images/87.jpg,167,xxr,001,2020-11-19_21h50.02.695,test2,2020.2.5,MacIntel,60
,,,,z,0.334,0,167,167,167,1,houses/images/249.jpg,houses/images/270.jpg,168,xxr,001,2020-11-19_21h50.02.695,test2,2020.2.5,MacIntel,60
,,,,m,0.382,0,168,168,168,1,houses/images/25.jpg,houses/images/67.jpg,169,xxr,001,2020-11-19_21h50.02.695,test2,2020.2.5,MacIntel,60
,,,,z,0.584,0,169,169,169,1,houses/images/250.jpg,houses/images/234.jpg,170,xxr,001,2020-11-19_21h50.02.695,test2,2020.2.5,MacIntel,60
,,,,m,0.292,0,170,170,170,1,houses/images/251.jpg,houses/images/16.jpg,171,xxr,001,2020-11-19_21h50.02.695,test2,2020.2.5,MacIntel,60
,,,,z,0.325,0,171,171,171,1,houses/images/252.jpg,houses/images/12.jpg,172,xxr,001,2020-11-19_21h50.02.695,test2,2020.2.5,MacIntel,60
,,,,z,0.42,0,172,172,172,1,houses/images/253.jpg,houses/images/185.jpg,173,xxr,001,2020-11-19_21h50.02.695,test2,2020.2.5,MacIntel,60
,,,,m,0.37,0,173,173,173,1,houses/images/254.jpg,houses/images/39.jpg,174,xxr,001,2020-11-19_21h50.02.695,test2,2020.2.5,MacIntel,60
,,,,z,0.334,0,174,174,174,1,houses/images/255.jpg,houses/images/237.jpg,175,xxr,001,2020-11-19_21h50.02.695,test2,2020.2.5,MacIntel,60
,,,,m,0.322,0,175,175,175,1,houses/images/256.jpg,houses/images/356.jpg,176,xxr,001,2020-11-19_21h50.02.695,test2,2020.2.5,MacIntel,60
,,,,m,0.443,0,176,176,176,1,houses/images/257.jpg,houses/images/107.jpg,177,xxr,001,2020-11-19_21h50.02.695,test2,2020.2.5,MacIntel,60
,,,,z,0.56,0,177,177,177,1,houses/images/258.jpg,houses/images/84.jpg,178,xxr,001,2020-11-19_21h50.02.695,test2,2020.2.5,MacIntel,60
,,,,m,0.35,0,178,178,178,1,houses/images/259.jpg,houses/images/119.jpg,179,xxr,001,2020-11-19_21h50.02.695,test2,2020.2.5,MacIntel,60
,,,,m,0.338,0,179,179,179,1,houses/images/26.jpg,houses/images/227.jpg,180,xxr,001,2020-11-19_21h50.02.695,test2,2020.2.5,MacIntel,60
,,,,z,0.094,0,180,180,180,1,houses/images/260.jpg,houses/images/238.jpg,181,xxr,001,2020-11-19_21h50.02.695,test2,2020.2.5,MacIntel,60
,,,,m,0.409,0,181,181,181,1,houses/images/261.jpg,houses/images/337.jpg,182,xxr,001,2020-11-19_21h50.02.695,test2,2020.2.5,MacIntel,60
,,,,m,0.288,0,182,182,182,1,houses/images/262.jpg,houses/images/214.jpg,183,xxr,001,2020-11-19_21h50.02.695,test2,2020.2.5,MacIntel,60
,,,,m,0.316,0,183,183,183,1,houses/images/263.jpg,houses/images/239.jpg,184,xxr,001,2020-11-19_21h50.02.695,test2,2020.2.5,MacIntel,60
,,,,m,0.331,0,184,184,184,1,houses/images/264.jpg,houses/images/149.jpg,185,xxr,001,2020-11-19_21h50.02.695,test2,2020.2.5,MacIntel,60
,,,,m,0.302,0,185,185,185,1,houses/images/265.jpg,houses/images/68.jpg,186,xxr,001,2020-11-19_21h50.02.695,test2,2020.2.5,MacIntel,60
,,,,m,0.385,0,186,186,186,1,houses/images/266.jpg,houses/images/271.jpg,187,xxr,001,2020-11-19_21h50.02.695,test2,2020.2.5,MacIntel,60
,,,,m,0.356,0,187,187,187,1,houses/images/267.jpg,houses/images/87.jpg,188,xxr,001,2020-11-19_21h50.02.695,test2,2020.2.5,MacIntel,60
,,,,z,0.468,0,188,188,188,1,houses/images/268.jpg,houses/images/348.jpg,189,xxr,001,2020-11-19_21h50.02.695,test2,2020.2.5,MacIntel,60
,,,,m,0.395,0,189,189,189,1,houses/images/269.jpg,houses/images/228.jpg,190,xxr,001,2020-11-19_21h50.02.695,test2,2020.2.5,MacIntel,60
,,,,z,0.31,0,190,190,190,1,houses/images/27.jpg,houses/images/317.jpg,191,xxr,001,2020-11-19_21h50.02.695,test2,2020.2.5,MacIntel,60
,,,,m,0.282,0,191,191,191,1,houses/images/270.jpg,houses/images/10.jpg,192,xxr,001,2020-11-19_21h50.02.695,test2,2020.2.5,MacIntel,60
,,,,z,0.364,0,192,192,192,1,houses/images/271.jpg,houses/images/222.jpg,193,xxr,001,2020-11-19_21h50.02.695,test2,2020.2.5,MacIntel,60
,,,,m,0.338,0,193,193,193,1,houses/images/272.jpg,houses/images/314.jpg,194,xxr,001,2020-11-19_21h50.02.695,test2,2020.2.5,MacIntel,60
,,,,z,0.271,0,194,194,194,1,houses/images/273.jpg,houses/images/28.jpg,195,xxr,001,2020-11-19_21h50.02.695,test2,2020.2.5,MacIntel,60
,,,,m,0.331,0,195,195,195,1,houses/images/174.jpg,houses/images/294.jpg,196,xxr,001,2020-11-19_21h50.02.695,test2,2020.2.5,MacIntel,60
,,,,z,0.26,0,196,196,196,1,houses/images/275.jpg,houses/images/60.jpg,197,xxr,001,2020-11-19_21h50.02.695,test2,2020.2.5,MacIntel,60
,,,,m,0.301,0,197,197,197,1,houses/images/276.jpg,houses/images/144.jpg,198,xxr,001,2020-11-19_21h50.02.695,test2,2020.2.5,MacIntel,60
,,,,z,0.42,0,198,198,198,1,houses/images/277.jpg,houses/images/168.jpg,199,xxr,001,2020-11-19_21h50.02.695,test2,2020.2.5,MacIntel,60
,,,,m,0.291,0,199,199,199,1,houses/images/278.jpg,houses/images/206.jpg,200,xxr,001,2020-11-19_21h50.02.695,test2,2020.2.5,MacIntel,60
,,,,z,0.291,0,200,200,200,1,houses/images/279.jpg,houses/images/91.jpg,201,xxr,001,2020-11-19_21h50.02.695,test2,2020.2.5,MacIntel,60
,,,,m,0.263,0,201,201,201,1,houses/images/28.jpg,houses/images/49.jpg,202,xxr,001,2020-11-19_21h50.02.695,test2,2020.2.5,MacIntel,60
,,,,z,0.274,0,202,202,202,1,houses/images/280.jpg,houses/images/163.jpg,203,xxr,001,2020-11-19_21h50.02.695,test2,2020.2.5,MacIntel,60
,,,,m,0.298,0,203,203,203,1,houses/images/281.jpg,houses/images/176.jpg,204,xxr,001,2020-11-19_21h50.02.695,test2,2020.2.5,MacIntel,60
,,,,m,0.337,0,204,204,204,1,houses/images/282.jpg,houses/images/263.jpg,205,xxr,001,2020-11-19_21h50.02.695,test2,2020.2.5,MacIntel,60
,,,,z,0.37,0,205,205,205,1,houses/images/283.jpg,houses/images/303.jpg,206,xxr,001,2020-11-19_21h50.02.695,test2,2020.2.5,MacIntel,60
,,,,m,0.314,0,206,206,206,1,houses/images/284.jpg,houses/images/184.jpg,207,xxr,001,2020-11-19_21h50.02.695,test2,2020.2.5,MacIntel,60
,,,,z,0.323,0,207,207,207,1,houses/images/285.jpg,houses/images/264.jpg,208,xxr,001,2020-11-19_21h50.02.695,test2,2020.2.5,MacIntel,60
,,,,m,0.313,0,208,208,208,1,houses/images/286.jpg,houses/images/89.jpg,209,xxr,001,2020-11-19_21h50.02.695,test2,2020.2.5,MacIntel,60
,,,,z,0.341,0,209,209,209,1,houses/images/187.jpg,houses/images/350.jpg,210,xxr,001,2020-11-19_21h50.02.695,test2,2020.2.5,MacIntel,60
,,,,m,0.317,0,210,210,210,1,houses/images/288.jpg,houses/images/267.jpg,211,xxr,001,2020-11-19_21h50.02.695,test2,2020.2.5,MacIntel,60
,,,,z,0.269,0,211,211,211,1,houses/images/289.jpg,houses/images/332.jpg,212,xxr,001,2020-11-19_21h50.02.695,test2,2020.2.5,MacIntel,60
,,,,m,0.226,0,212,212,212,1,houses/images/29.jpg,houses/images/61.jpg,213,xxr,001,2020-11-19_21h50.02.695,test2,2020.2.5,MacIntel,60
,,,,z,0.19,0,213,213,213,1,houses/images/290.jpg,houses/images/102.jpg,214,xxr,001,2020-11-19_21h50.02.695,test2,2020.2.5,MacIntel,60
,,,,m,0.327,0,214,214,214,1,houses/images/291.jpg,houses/images/220.jpg,215,xxr,001,2020-11-19_21h50.02.695,test2,2020.2.5,MacIntel,60
,,,,z,0.322,0,215,215,215,1,houses/images/292.jpg,houses/images/121.jpg,216,xxr,001,2020-11-19_21h50.02.695,test2,2020.2.5,MacIntel,60
,,,,m,0.298,0,216,216,216,1,houses/images/293.jpg,houses/images/25.jpg,217,xxr,001,2020-11-19_21h50.02.695,test2,2020.2.5,MacIntel,60
,,,,z,0.323,0,217,217,217,1,houses/images/294.jpg,houses/images/284.jpg,218,xxr,001,2020-11-19_21h50.02.695,test2,2020.2.5,MacIntel,60
,,,,m,0.297,0,218,218,218,1,houses/images/295.jpg,houses/images/273.jpg,219,xxr,001,2020-11-19_21h50.02.695,test2,2020.2.5,MacIntel,60
,,,,m,0.39,0,219,219,219,1,houses/images/296.jpg,houses/images/122.jpg,220,xxr,001,2020-11-19_21h50.02.695,test2,2020.2.5,MacIntel,60
,,,,z,0.315,0,220,220,220,1,houses/images/297.jpg,houses/images/217.jpg,221,xxr,001,2020-11-19_21h50.02.695,test2,2020.2.5,MacIntel,60
,,,,m,0.364,0,221,221,221,1,houses/images/298.jpg,houses/images/178.jpg,222,xxr,001,2020-11-19_21h50.02.695,test2,2020.2.5,MacIntel,60
,,,,m,0.325,0,222,222,222,1,houses/images/299.jpg,houses/images/43.jpg,223,xxr,001,2020-11-19_21h50.02.695,test2,2020.2.5,MacIntel,60
,,,,z,0.302,0,223,223,223,1,houses/images/3.jpg,houses/images/229.jpg,224,xxr,001,2020-11-19_21h50.02.695,test2,2020.2.5,MacIntel,60
,,,,m,0.361,0,224,224,224,1,houses/images/30.jpg,houses/images/177.jpg,225,xxr,001,2020-11-19_21h50.02.695,test2,2020.2.5,MacIntel,60
,,,,z,0.323,0,225,225,225,1,houses/images/300.jpg,houses/images/342.jpg,226,xxr,001,2020-11-19_21h50.02.695,test2,2020.2.5,MacIntel,60
,,,,z,0.371,0,226,226,226,1,houses/images/201.jpg,houses/images/57.jpg,227,xxr,001,2020-11-19_21h50.02.695,test2,2020.2.5,MacIntel,60
,,,,m,0.31,0,227,227,227,1,houses/images/302.jpg,houses/images/186.jpg,228,xxr,001,2020-11-19_21h50.02.695,test2,2020.2.5,MacIntel,60
,,,,z,0.305,0,228,228,228,1,houses/images/303.jpg,houses/images/131.jpg,229,xxr,001,2020-11-19_21h50.02.695,test2,2020.2.5,MacIntel,60
,,,,m,0.296,0,229,229,229,1,houses/images/304.jpg,houses/images/183.jpg,230,xxr,001,2020-11-19_21h50.02.695,test2,2020.2.5,MacIntel,60
,,,,z,0.445,0,230,230,230,1,houses/images/305.jpg,houses/images/200.jpg,231,xxr,001,2020-11-19_21h50.02.695,test2,2020.2.5,MacIntel,60
,,,,m,0.36,0,231,231,231,1,houses/images/306.jpg,houses/images/94.jpg,232,xxr,001,2020-11-19_21h50.02.695,test2,2020.2.5,MacIntel,60
,,,,z,0.53,0,232,232,232,1,houses/images/307.jpg,houses/images/96.jpg,233,xxr,001,2020-11-19_21h50.02.695,test2,2020.2.5,MacIntel,60
,,,,m,0.472,0,233,233,233,1,houses/images/308.jpg,houses/images/76.jpg,234,xxr,001,2020-11-19_21h50.02.695,test2,2020.2.5,MacIntel,60
,,,,z,0.283,0,234,234,234,1,houses/images/309.jpg,houses/images/78.jpg,235,xxr,001,2020-11-19_21h50.02.695,test2,2020.2.5,MacIntel,60
,,,,m,0.368,0,235,235,235,1,houses/images/31.jpg,houses/images/76.jpg,236,xxr,001,2020-11-19_21h50.02.695,test2,2020.2.5,MacIntel,60
,,,,m,0.46,0,236,236,236,1,houses/images/310.jpg,houses/images/128.jpg,237,xxr,001,2020-11-19_21h50.02.695,test2,2020.2.5,MacIntel,60
,,,,z,0.263,0,237,237,237,1,houses/images/311.jpg,houses/images/190.jpg,238,xxr,001,2020-11-19_21h50.02.695,test2,2020.2.5,MacIntel,60
,,,,m,0.348,0,238,238,238,1,houses/images/312.jpg,houses/images/5.jpg,239,xxr,001,2020-11-19_21h50.02.695,test2,2020.2.5,MacIntel,60
,,,,m,0.375,0,239,239,239,1,houses/images/313.jpg,houses/images/188.jpg,240,xxr,001,2020-11-19_21h50.02.695,test2,2020.2.5,MacIntel,60
,,,,z,0.309,0,240,240,240,1,houses/images/314.jpg,houses/images/342.jpg,241,xxr,001,2020-11-19_21h50.02.695,test2,2020.2.5,MacIntel,60
,,,,m,0.328,0,241,241,241,1,houses/images/315.jpg,houses/images/288.jpg,242,xxr,001,2020-11-19_21h50.02.695,test2,2020.2.5,MacIntel,60
,,,,z,0.356,0,242,242,242,1,houses/images/316.jpg,houses/images/321.jpg,243,xxr,001,2020-11-19_21h50.02.695,test2,2020.2.5,MacIntel,60
,,,,m,0.287,0,243,243,243,1,houses/images/317.jpg,houses/images/82.jpg,244,xxr,001,2020-11-19_21h50.02.695,test2,2020.2.5,MacIntel,60
,,,,z,0.271,0,244,244,244,1,houses/images/318.jpg,houses/images/169.jpg,245,xxr,001,2020-11-19_21h50.02.695,test2,2020.2.5,MacIntel,60
,,,,m,0.329,0,245,245,245,1,houses/images/319.jpg,houses/images/224.jpg,246,xxr,001,2020-11-19_21h50.02.695,test2,2020.2.5,MacIntel,60
,,,,m,0.313,0,246,246,246,1,houses/images/32.jpg,houses/images/175.jpg,247,xxr,001,2020-11-19_21h50.02.695,test2,2020.2.5,MacIntel,60
,,,,z,0.378,0,247,247,247,1,houses/images/320.jpg,houses/images/247.jpg,248,xxr,001,2020-11-19_21h50.02.695,test2,2020.2.5,MacIntel,60
,,,,m,0.33,0,248,248,248,1,houses/images/321.jpg,houses/images/97.jpg,249,xxr,001,2020-11-19_21h50.02.695,test2,2020.2.5,MacIntel,60
,,,,m,0.395,0,249,249,249,1,houses/images/322.jpg,houses/images/74.jpg,250,xxr,001,2020-11-19_21h50.02.695,test2,2020.2.5,MacIntel,60
,,,,z,0.437,0,250,250,250,1,houses/images/323.jpg,houses/images/148.jpg,251,xxr,001,2020-11-19_21h50.02.695,test2,2020.2.5,MacIntel,60
,,,,m,0.315,0,251,251,251,1,houses/images/324.jpg,houses/images/313.jpg,252,xxr,001,2020-11-19_21h50.02.695,test2,2020.2.5,MacIntel,60
,,,,z,0.337,0,252,252,252,1,houses/images/325.jpg,houses/images/11.jpg,253,xxr,001,2020-11-19_21h50.02.695,test2,2020.2.5,MacIntel,60
,,,,m,0.404,0,253,253,253,1,houses/images/326.jpg,houses/images/21.jpg,254,xxr,001,2020-11-19_21h50.02.695,test2,2020.2.5,MacIntel,60
,,,,z,0.361,0,254,254,254,1,houses/images/327.jpg,houses/images/281.jpg,255,xxr,001,2020-11-19_21h50.02.695,test2,2020.2.5,MacIntel,60
,,,,m,0.318,0,255,255,255,1,houses/images/328.jpg,houses/images/172.jpg,256,xxr,001,2020-11-19_21h50.02.695,test2,2020.2.5,MacIntel,60
,,,,m,0.362,0,256,256,256,1,houses/images/329.jpg,houses/images/273.jpg,257,xxr,001,2020-11-19_21h50.02.695,test2,2020.2.5,MacIntel,60
,,,,z,0.32,0,257,257,257,1,houses/images/33.jpg,houses/images/239.jpg,258,xxr,001,2020-11-19_21h50.02.695,test2,2020.2.5,MacIntel,60
,,,,m,0.349,0,258,258,258,1,houses/images/330.jpg,houses/images/333.jpg,259,xxr,001,2020-11-19_21h50.02.695,test2,2020.2.5,MacIntel,60
,,,,z,0.352,0,259,259,259,1,houses/images/331.jpg,houses/images/361.jpg,260,xxr,001,2020-11-19_21h50.02.695,test2,2020.2.5,MacIntel,60
,,,,m,0.362,0,260,260,260,1,houses/images/332.jpg,houses/images/91.jpg,261,xxr,001,2020-11-19_21h50.02.695,test2,2020.2.5,MacIntel,60
,,,,z,0.276,0,261,261,261,1,houses/images/333.jpg,houses/images/158.jpg,262,xxr,001,2020-11-19_21h50.02.695,test2,2020.2.5,MacIntel,60
,,,,m,0.272,0,262,262,262,1,houses/images/334.jpg,houses/images/10.jpg,263,xxr,001,2020-11-19_21h50.02.695,test2,2020.2.5,MacIntel,60
,,,,z,0.276,0,263,263,263,1,houses/images/335.jpg,houses/images/331.jpg,264,xxr,001,2020-11-19_21h50.02.695,test2,2020.2.5,MacIntel,60
,,,,m,0.275,0,264,264,264,1,houses/images/336.jpg,houses/images/171.jpg,265,xxr,001,2020-11-19_21h50.02.695,test2,2020.2.5,MacIntel,60
,,,,z,0.276,0,265,265,265,1,houses/images/337.jpg,houses/images/226.jpg,266,xxr,001,2020-11-19_21h50.02.695,test2,2020.2.5,MacIntel,60
,,,,m,0.276,0,266,266,266,1,houses/images/238.jpg,houses/images/214.jpg,267,xxr,001,2020-11-19_21h50.02.695,test2,2020.2.5,MacIntel,60
,,,,z,0.305,0,267,267,267,1,houses/images/239.jpg,houses/images/130.jpg,268,xxr,001,2020-11-19_21h50.02.695,test2,2020.2.5,MacIntel,60
,,,,m,0.34,0,268,268,268,1,houses/images/34.jpg,houses/images/85.jpg,269,xxr,001,2020-11-19_21h50.02.695,test2,2020.2.5,MacIntel,60
,,,,z,0.318,0,269,269,269,1,houses/images/340.jpg,houses/images/248.jpg,270,xxr,001,2020-11-19_21h50.02.695,test2,2020.2.5,MacIntel,60
,,,,m,0.303,0,270,270,270,1,houses/images/341.jpg,houses/images/215.jpg,271,xxr,001,2020-11-19_21h50.02.695,test2,2020.2.5,MacIntel,60
,,,,z,0.304,0,271,271,271,1,houses/images/342.jpg,houses/images/155.jpg,272,xxr,001,2020-11-19_21h50.02.695,test2,2020.2.5,MacIntel,60
,,,,m,0.263,0,272,272,272,1,houses/images/343.jpg,houses/images/193.jpg,273,xxr,001,2020-11-19_21h50.02.695,test2,2020.2.5,MacIntel,60
,,,,z,0.306,0,273,273,273,1,houses/images/344.jpg,houses/images/324.jpg,274,xxr,001,2020-11-19_21h50.02.695,test2,2020.2.5,MacIntel,60
,,,,m,0.318,0,274,274,274,1,houses/images/345.jpg,houses/images/86.jpg,275,xxr,001,2020-11-19_21h50.02.695,test2,2020.2.5,MacIntel,60
,,,,z,0.356,0,275,275,275,1,houses/images/246.jpg,houses/images/295.jpg,276,xxr,001,2020-11-19_21h50.02.695,test2,2020.2.5,MacIntel,60
,,,,z,0.35,0,276,276,276,1,houses/images/347.jpg,houses/images/292.jpg,277,xxr,001,2020-11-19_21h50.02.695,test2,2020.2.5,MacIntel,60
,,,,m,0.3,0,277,277,277,1,houses/images/348.jpg,houses/images/55.jpg,278,xxr,001,2020-11-19_21h50.02.695,test2,2020.2.5,MacIntel,60
,,,,z,0.35,0,278,278,278,1,houses/images/349.jpg,houses/images/1.jpg,279,xxr,001,2020-11-19_21h50.02.695,test2,2020.2.5,MacIntel,60
,,,,m,0.448,0,279,279,279,1,houses/images/35.jpg,houses/images/73.jpg,280,xxr,001,2020-11-19_21h50.02.695,test2,2020.2.5,MacIntel,60
,,,,z,0.264,0,280,280,280,1,houses/images/350.jpg,houses/images/44.jpg,281,xxr,001,2020-11-19_21h50.02.695,test2,2020.2.5,MacIntel,60
,,,,z,0.304,0,281,281,281,1,houses/images/351.jpg,houses/images/6.jpg,282,xxr,001,2020-11-19_21h50.02.695,test2,2020.2.5,MacIntel,60
,,,,m,0.378,0,282,282,282,1,houses/images/352.jpg,houses/images/20.jpg,283,xxr,001,2020-11-19_21h50.02.695,test2,2020.2.5,MacIntel,60
,,,,z,0.291,0,283,283,283,1,houses/images/353.jpg,houses/images/18.jpg,284,xxr,001,2020-11-19_21h50.02.695,test2,2020.2.5,MacIntel,60
,,,,z,0.265,0,284,284,284,1,houses/images/354.jpg,houses/images/347.jpg,285,xxr,001,2020-11-19_21h50.02.695,test2,2020.2.5,MacIntel,60
,,,,m,0.27,0,285,285,285,1,houses/images/355.jpg,houses/images/27.jpg,286,xxr,001,2020-11-19_21h50.02.695,test2,2020.2.5,MacIntel,60
,,,,z,0.288,0,286,286,286,1,houses/images/356.jpg,houses/images/276.jpg,287,xxr,001,2020-11-19_21h50.02.695,test2,2020.2.5,MacIntel,60
,,,,z,0.273,0,287,287,287,1,houses/images/357.jpg,houses/images/345.jpg,288,xxr,001,2020-11-19_21h50.02.695,test2,2020.2.5,MacIntel,60
,,,,m,0.305,0,288,288,288,1,houses/images/358.jpg,houses/images/235.jpg,289,xxr,001,2020-11-19_21h50.02.695,test2,2020.2.5,MacIntel,60
,,,,z,0.249,0,289,289,289,1,houses/images/359.jpg,houses/images/115.jpg,290,xxr,001,2020-11-19_21h50.02.695,test2,2020.2.5,MacIntel,60
,,,,z,0.337,0,290,290,290,1,houses/images/36.jpg,houses/images/310.jpg,291,xxr,001,2020-11-19_21h50.02.695,test2,2020.2.5,MacIntel,60
,,,,m,0.337,0,291,291,291,1,houses/images/360.jpg,houses/images/93.jpg,292,xxr,001,2020-11-19_21h50.02.695,test2,2020.2.5,MacIntel,60
,,,,z,0.343,0,292,292,292,1,houses/images/361.jpg,houses/images/212.jpg,293,xxr,001,2020-11-19_21h50.02.695,test2,2020.2.5,MacIntel,60
,,,,z,0.379,0,293,293,293,1,houses/images/62.jpg,houses/images/51.jpg,294,xxr,001,2020-11-19_21h50.02.695,test2,2020.2.5,MacIntel,60
,,,,m,0.066,0,294,294,294,1,houses/images/37.jpg,houses/images/108.jpg,295,xxr,001,2020-11-19_21h50.02.695,test2,2020.2.5,MacIntel,60
,,,,z,0.438,0,295,295,295,1,houses/images/38.jpg,houses/images/127.jpg,296,xxr,001,2020-11-19_21h50.02.695,test2,2020.2.5,MacIntel,60
,,,,m,0.165,0,296,296,296,1,houses/images/39.jpg,houses/images/52.jpg,297,xxr,001,2020-11-19_21h50.02.695,test2,2020.2.5,MacIntel,60
,,,,m,0.232,0,297,297,297,1,houses/images/4.jpg,houses/images/318.jpg,298,xxr,001,2020-11-19_21h50.02.695,test2,2020.2.5,MacIntel,60
,,,,m,0.155,0,298,298,298,1,houses/images/40.jpg,houses/images/201.jpg,299,xxr,001,2020-11-19_21h50.02.695,test2,2020.2.5,MacIntel,60
,,,,m,0.143,0,299,299,299,1,houses/images/41.jpg,houses/images/7.jpg,300,xxr,001,2020-11-19_21h50.02.695,test2,2020.2.5,MacIntel,60
,,,,z,0.199,0,300,300,300,1,houses/images/42.jpg,houses/images/340.jpg,301,xxr,001,2020-11-19_21h50.02.695,test2,2020.2.5,MacIntel,60
,,,,m,0.172,0,301,301,301,1,houses/images/43.jpg,houses/images/150.jpg,302,xxr,001,2020-11-19_21h50.02.695,test2,2020.2.5,MacIntel,60
,,,,m,0.149,0,302,302,302,1,houses/images/44.jpg,houses/images/246.jpg,303,xxr,001,2020-11-19_21h50.02.695,test2,2020.2.5,MacIntel,60
,,,,m,0.137,0,303,303,303,1,houses/images/145.jpg,houses/images/18.jpg,304,xxr,001,2020-11-19_21h50.02.695,test2,2020.2.5,MacIntel,60
,,,,z,0.112,0,304,304,304,1,houses/images/46.jpg,houses/images/211.jpg,305,xxr,001,2020-11-19_21h50.02.695,test2,2020.2.5,MacIntel,60
,,,,m,0.187,0,305,305,305,1,houses/images/47.jpg,houses/images/282.jpg,306,xxr,001,2020-11-19_21h50.02.695,test2,2020.2.5,MacIntel,60
,,,,m,0.201,0,306,306,306,1,houses/images/48.jpg,houses/images/145.jpg,307,xxr,001,2020-11-19_21h50.02.695,test2,2020.2.5,MacIntel,60
,,,,m,0.131,0,307,307,307,1,houses/images/49.jpg,houses/images/135.jpg,308,xxr,001,2020-11-19_21h50.02.695,test2,2020.2.5,MacIntel,60
,,,,z,0.146,0,308,308,308,1,houses/images/5.jpg,houses/images/59.jpg,309,xxr,001,2020-11-19_21h50.02.695,test2,2020.2.5,MacIntel,60
,,,,m,0.153,0,309,309,309,1,houses/images/50.jpg,houses/images/164.jpg,310,xxr,001,2020-11-19_21h50.02.695,test2,2020.2.5,MacIntel,60
,,,,m,0.177,0,310,310,310,1,houses/images/51.jpg,houses/images/42.jpg,311,xxr,001,2020-11-19_21h50.02.695,test2,2020.2.5,MacIntel,60
,,,,m,0.138,0,311,311,311,1,houses/images/52.jpg,houses/images/32.jpg,312,xxr,001,2020-11-19_21h50.02.695,test2,2020.2.5,MacIntel,60
,,,,z,0.175,0,312,312,312,1,houses/images/53.jpg,houses/images/357.jpg,313,xxr,001,2020-11-19_21h50.02.695,test2,2020.2.5,MacIntel,60
,,,,m,0.149,0,313,313,313,1,houses/images/54.jpg,houses/images/305.jpg,314,xxr,001,2020-11-19_21h50.02.695,test2,2020.2.5,MacIntel,60
,,,,z,0.231,0,314,314,314,1,houses/images/55.jpg,houses/images/352.jpg,315,xxr,001,2020-11-19_21h50.02.695,test2,2020.2.5,MacIntel,60
,,,,m,0.116,0,315,315,315,1,houses/images/56.jpg,houses/images/273.jpg,316,xxr,001,2020-11-19_21h50.02.695,test2,2020.2.5,MacIntel,60
,,,,z,0.156,0,316,316,316,1,houses/images/57.jpg,houses/images/143.jpg,317,xxr,001,2020-11-19_21h50.02.695,test2,2020.2.5,MacIntel,60
,,,,m,0.155,0,317,317,317,1,houses/images/58.jpg,houses/images/95.jpg,318,xxr,001,2020-11-19_21h50.02.695,test2,2020.2.5,MacIntel,60
,,,,z,0.12,0,318,318,318,1,houses/images/59.jpg,houses/images/244.jpg,319,xxr,001,2020-11-19_21h50.02.695,test2,2020.2.5,MacIntel,60
,,,,m,0.107,0,319,319,319,1,houses/images/6.jpg,houses/images/202.jpg,320,xxr,001,2020-11-19_21h50.02.695,test2,2020.2.5,MacIntel,60
,,,,z,0.127,0,320,320,320,1,houses/images/60.jpg,houses/images/203.jpg,321,xxr,001,2020-11-19_21h50.02.695,test2,2020.2.5,MacIntel,60
,,,,m,0.073,0,321,321,321,1,houses/images/61.jpg,houses/images/123.jpg,322,xxr,001,2020-11-19_21h50.02.695,test2,2020.2.5,MacIntel,60
,,,,z,0.133,0,322,322,322,1,houses/images/62.jpg,houses/images/353.jpg,323,xxr,001,2020-11-19_21h50.02.695,test2,2020.2.5,MacIntel,60
,,,,m,0.089,0,323,323,323,1,houses/images/63.jpg,houses/images/281.jpg,324,xxr,001,2020-11-19_21h50.02.695,test2,2020.2.5,MacIntel,60
,,,,z,0.077,0,324,324,324,1,houses/images/64.jpg,houses/images/280.jpg,325,xxr,001,2020-11-19_21h50.02.695,test2,2020.2.5,MacIntel,60
,,,,m,0.087,0,325,325,325,1,houses/images/65.jpg,houses/images/309.jpg,326,xxr,001,2020-11-19_21h50.02.695,test2,2020.2.5,MacIntel,60
,,,,z,0.07,0,326,326,326,1,houses/images/66.jpg,houses/images/302.jpg,327,xxr,001,2020-11-19_21h50.02.695,test2,2020.2.5,MacIntel,60
,,,,z,0.395,0,327,327,327,1,houses/images/67.jpg,houses/images/300.jpg,328,xxr,001,2020-11-19_21h50.02.695,test2,2020.2.5,MacIntel,60
,,,,m,0.345,0,328,328,328,1,houses/images/68.jpg,houses/images/328.jpg,329,xxr,001,2020-11-19_21h50.02.695,test2,2020.2.5,MacIntel,60
,,,,z,0.281,0,329,329,329,1,houses/images/69.jpg,houses/images/114.jpg,330,xxr,001,2020-11-19_21h50.02.695,test2,2020.2.5,MacIntel,60
,,,,m,0.157,0,330,330,330,1,houses/images/7.jpg,houses/images/31.jpg,331,xxr,001,2020-11-19_21h50.02.695,test2,2020.2.5,MacIntel,60
,,,,z,0.297,0,331,331,331,1,houses/images/70.jpg,houses/images/54.jpg,332,xxr,001,2020-11-19_21h50.02.695,test2,2020.2.5,MacIntel,60
,,,,m,0.188,0,332,332,332,1,houses/images/71.jpg,houses/images/293.jpg,333,xxr,001,2020-11-19_21h50.02.695,test2,2020.2.5,MacIntel,60
,,,,z,0.32,0,333,333,333,1,houses/images/72.jpg,houses/images/37.jpg,334,xxr,001,2020-11-19_21h50.02.695,test2,2020.2.5,MacIntel,60
,,,,m,0.331,0,334,334,334,1,houses/images/73.jpg,houses/images/230.jpg,335,xxr,001,2020-11-19_21h50.02.695,test2,2020.2.5,MacIntel,60
,,,,z,0.352,0,335,335,335,1,houses/images/74.jpg,houses/images/88.jpg,336,xxr,001,2020-11-19_21h50.02.695,test2,2020.2.5,MacIntel,60
,,,,z,0.392,0,336,336,336,1,houses/images/75.jpg,houses/images/161.jpg,337,xxr,001,2020-11-19_21h50.02.695,test2,2020.2.5,MacIntel,60
,,,,m,0.303,0,337,337,337,1,houses/images/76.jpg,houses/images/354.jpg,338,xxr,001,2020-11-19_21h50.02.695,test2,2020.2.5,MacIntel,60
,,,,z,0.31,0,338,338,338,1,houses/images/77.jpg,houses/images/251.jpg,339,xxr,001,2020-11-19_21h50.02.695,test2,2020.2.5,MacIntel,60
,,,,m,0.268,0,339,339,339,1,houses/images/78.jpg,houses/images/143.jpg,340,xxr,001,2020-11-19_21h50.02.695,test2,2020.2.5,MacIntel,60
,,,,m,0.205,0,340,340,340,1,houses/images/79.jpg,houses/images/335.jpg,341,xxr,001,2020-11-19_21h50.02.695,test2,2020.2.5,MacIntel,60
,,,,z,0.783,0,341,341,341,1,houses/images/8.jpg,houses/images/231.jpg,342,xxr,001,2020-11-19_21h50.02.695,test2,2020.2.5,MacIntel,60
,,,,m,0.427,0,342,342,342,1,houses/images/80.jpg,houses/images/69.jpg,343,xxr,001,2020-11-19_21h50.02.695,test2,2020.2.5,MacIntel,60
,,,,z,0.294,0,343,343,343,1,houses/images/81.jpg,houses/images/92.jpg,344,xxr,001,2020-11-19_21h50.02.695,test2,2020.2.5,MacIntel,60
,,,,m,0.33,0,344,344,344,1,houses/images/82.jpg,houses/images/221.jpg,345,xxr,001,2020-11-19_21h50.02.695,test2,2020.2.5,MacIntel,60
,,,,z,0.225,0,345,345,345,1,houses/images/83.jpg,houses/images/196.jpg,346,xxr,001,2020-11-19_21h50.02.695,test2,2020.2.5,MacIntel,60
,,,,m,0.314,0,346,346,346,1,houses/images/84.jpg,houses/images/53.jpg,347,xxr,001,2020-11-19_21h50.02.695,test2,2020.2.5,MacIntel,60
,,,,z,0.26,0,347,347,347,1,houses/images/85.jpg,houses/images/166.jpg,348,xxr,001,2020-11-19_21h50.02.695,test2,2020.2.5,MacIntel,60
,,,,m,0.209,0,348,348,348,1,houses/images/86.jpg,houses/images/266.jpg,349,xxr,001,2020-11-19_21h50.02.695,test2,2020.2.5,MacIntel,60
,,,,z,0.243,0,349,349,349,1,houses/images/87.jpg,houses/images/355.jpg,350,xxr,001,2020-11-19_21h50.02.695,test2,2020.2.5,MacIntel,60
,,,,m,0.188,0,350,350,350,1,houses/images/88.jpg,houses/images/206.jpg,351,xxr,001,2020-11-19_21h50.02.695,test2,2020.2.5,MacIntel,60
,,,,z,0.278,0,351,351,351,1,houses/images/89.jpg,houses/images/241.jpg,352,xxr,001,2020-11-19_21h50.02.695,test2,2020.2.5,MacIntel,60
,,,,m,0.144,0,352,352,352,1,houses/images/9.jpg,houses/images/147.jpg,353,xxr,001,2020-11-19_21h50.02.695,test2,2020.2.5,MacIntel,60
,,,,z,0.211,0,353,353,353,1,houses/images/90.jpg,houses/images/117.jpg,354,xxr,001,2020-11-19_21h50.02.695,test2,2020.2.5,MacIntel,60
,,,,m,0.161,0,354,354,354,1,houses/images/91.jpg,houses/images/34.jpg,355,xxr,001,2020-11-19_21h50.02.695,test2,2020.2.5,MacIntel,60
,,,,z,0.326,0,355,355,355,1,houses/images/92.jpg,houses/images/105.jpg,356,xxr,001,2020-11-19_21h50.02.695,test2,2020.2.5,MacIntel,60
,,,,m,0.23,0,356,356,356,1,houses/images/93.jpg,houses/images/249.jpg,357,xxr,001,2020-11-19_21h50.02.695,test2,2020.2.5,MacIntel,60
,,,,z,0.254,0,357,357,357,1,houses/images/94.jpg,houses/images/265.jpg,358,xxr,001,2020-11-19_21h50.02.695,test2,2020.2.5,MacIntel,60
,,,,m,0.153,0,358,358,358,1,houses/images/95.jpg,houses/images/65.jpg,359,xxr,001,2020-11-19_21h50.02.695,test2,2020.2.5,MacIntel,60
,,,,z,0.411,0,359,359,359,1,houses/images/96.jpg,houses/images/83.jpg,360,xxr,001,2020-11-19_21h50.02.695,test2,2020.2.5,MacIntel,60
,,,,m,0.211,0,360,360,360,1,houses/images/97.jpg,houses/images/165.jpg,361,xxr,001,2020-11-19_21h50.02.695,test2,2020.2.5,MacIntel,60
,,,,z,0.179,0,361,361,361,1,houses/images/98.jpg,houses/images/280.jpg,362,xxr,001,2020-11-19_21h50.02.695,test2,2020.2.5,MacIntel,60
,,,,m,0.233,0,362,362,362,1,houses/images/199.jpg,houses/images/278.jpg,363,xxr,001,2020-11-19_21h50.02.695,test2,2020.2.5,MacIntel,60
,,,,z,0.204,0,363,363,363,1,houses/images/0.jpg,houses/images/297.jpg,364,xxr,001,2020-11-19_21h50.02.695,test2,2020.2.5,MacIntel,60
,,,,m,0.261,0,364,364,364,1,houses/images/1.jpg,houses/images/225.jpg,365,xxr,001,2020-11-19_21h50.02.695,test2,2020.2.5,MacIntel,60
,,,,z,0.111,0,365,365,365,1,houses/images/10.jpg,houses/images/41.jpg,366,xxr,001,2020-11-19_21h50.02.695,test2,2020.2.5,MacIntel,60
,,,,m,0.153,0,366,366,366,1,houses/images/100.jpg,houses/images/19.jpg,367,xxr,001,2020-11-19_21h50.02.695,test2,2020.2.5,MacIntel,60
,,,,z,0.168,0,367,367,367,1,houses/images/101.jpg,houses/images/189.jpg,368,xxr,001,2020-11-19_21h50.02.695,test2,2020.2.5,MacIntel,60
,,,,m,0.154,0,368,368,368,1,houses/images/102.jpg,houses/images/141.jpg,369,xxr,001,2020-11-19_21h50.02.695,test2,2020.2.5,MacIntel,60
,,,,z,0.197,0,369,369,369,1,houses/images/103.jpg,houses/images/212.jpg,370,xxr,001,2020-11-19_21h50.02.695,test2,2020.2.5,MacIntel,60
,,,,m,0.187,0,370,370,370,1,houses/images/104.jpg,houses/images/134.jpg,371,xxr,001,2020-11-19_21h50.02.695,test2,2020.2.5,MacIntel,60
,,,,z,0.172,0,371,371,371,1,houses/images/105.jpg,houses/images/13.jpg,372,xxr,001,2020-11-19_21h50.02.695,test2,2020.2.5,MacIntel,60
,,,,m,0.14,0,372,372,372,1,houses/images/106.jpg,houses/images/258.jpg,373,xxr,001,2020-11-19_21h50.02.695,test2,2020.2.5,MacIntel,60
,,,,z,0.116,0,373,373,373,1,houses/images/107.jpg,houses/images/14.jpg,374,xxr,001,2020-11-19_21h50.02.695,test2,2020.2.5,MacIntel,60
,,,,m,0.155,0,374,374,374,1,houses/images/108.jpg,houses/images/9.jpg,375,xxr,001,2020-11-19_21h50.02.695,test2,2020.2.5,MacIntel,60
,,,,z,0.164,0,375,375,375,1,houses/images/109.jpg,houses/images/106.jpg,376,xxr,001,2020-11-19_21h50.02.695,test2,2020.2.5,MacIntel,60
,,,,m,0.155,0,376,376,376,1,houses/images/11.jpg,houses/images/268.jpg,377,xxr,001,2020-11-19_21h50.02.695,test2,2020.2.5,MacIntel,60
,,,,z,0.129,0,377,377,377,1,houses/images/210.jpg,houses/images/330.jpg,378,xxr,001,2020-11-19_21h50.02.695,test2,2020.2.5,MacIntel,60
,,,,z,0.386,0,378,378,378,1,houses/images/111.jpg,houses/images/343.jpg,379,xxr,001,2020-11-19_21h50.02.695,test2,2020.2.5,MacIntel,60
,,,,z,0.245,0,379,379,379,1,houses/images/112.jpg,houses/images/225.jpg,380,xxr,001,2020-11-19_21h50.02.695,test2,2020.2.5,MacIntel,60
,,,,m,0.277,0,380,380,380,1,houses/images/113.jpg,houses/images/174.jpg,381,xxr,001,2020-11-19_21h50.02.695,test2,2020.2.5,MacIntel,60
,,,,z,0.193,0,381,381,381,1,houses/images/114.jpg,houses/images/25.jpg,382,xxr,001,2020-11-19_21h50.02.695,test2,2020.2.5,MacIntel,60
,,,,m,0.26,0,382,382,382,1,houses/images/115.jpg,houses/images/100.jpg,383,xxr,001,2020-11-19_21h50.02.695,test2,2020.2.5,MacIntel,60
,,,,m,0.393,0,383,383,383,1,houses/images/116.jpg,houses/images/48.jpg,384,xxr,001,2020-11-19_21h50.02.695,test2,2020.2.5,MacIntel,60
,,,,z,0.479,0,384,384,384,1,houses/images/117.jpg,houses/images/296.jpg,385,xxr,001,2020-11-19_21h50.02.695,test2,2020.2.5,MacIntel,60
,,,,m,0.278,0,385,385,385,1,houses/images/118.jpg,houses/images/15.jpg,386,xxr,001,2020-11-19_21h50.02.695,test2,2020.2.5,MacIntel,60
,,,,m,0.298,0,386,386,386,1,houses/images/119.jpg,houses/images/252.jpg,387,xxr,001,2020-11-19_21h50.02.695,test2,2020.2.5,MacIntel,60
,,,,z,0.278,0,387,387,387,1,houses/images/12.jpg,houses/images/290.jpg,388,xxr,001,2020-11-19_21h50.02.695,test2,2020.2.5,MacIntel,60
,,,,m,0.262,0,388,388,388,1,houses/images/120.jpg,houses/images/236.jpg,389,xxr,001,2020-11-19_21h50.02.695,test2,2020.2.5,MacIntel,60
,,,,z,0.177,0,389,389,389,1,houses/images/121.jpg,houses/images/260.jpg,390,xxr,001,2020-11-19_21h50.02.695,test2,2020.2.5,MacIntel,60
,,,,m,0.206,0,390,390,390,1,houses/images/122.jpg,houses/images/56.jpg,391,xxr,001,2020-11-19_21h50.02.695,test2,2020.2.5,MacIntel,60
,,,,m,0.212,0,391,391,391,1,houses/images/123.jpg,houses/images/336.jpg,392,xxr,001,2020-11-19_21h50.02.695,test2,2020.2.5,MacIntel,60
,,,,z,0.238,0,392,392,392,1,houses/images/124.jpg,houses/images/39.jpg,393,xxr,001,2020-11-19_21h50.02.695,test2,2020.2.5,MacIntel,60
,,,,m,0.181,0,393,393,393,1,houses/images/225.jpg,houses/images/302.jpg,394,xxr,001,2020-11-19_21h50.02.695,test2,2020.2.5,MacIntel,60
,,,,m,0.232,0,394,394,394,1,houses/images/226.jpg,houses/images/207.jpg,395,xxr,001,2020-11-19_21h50.02.695,test2,2020.2.5,MacIntel,60
,,,,z,0.304,0,395,395,395,1,houses/images/127.jpg,houses/images/348.jpg,396,xxr,001,2020-11-19_21h50.02.695,test2,2020.2.5,MacIntel,60
,,,,m,0.317,0,396,396,396,1,houses/images/128.jpg,houses/images/151.jpg,397,xxr,001,2020-11-19_21h50.02.695,test2,2020.2.5,MacIntel,60
,,,,z,0.26,0,397,397,397,1,houses/images/129.jpg,houses/images/315.jpg,398,xxr,001,2020-11-19_21h50.02.695,test2,2020.2.5,MacIntel,60
,,,,m,0.206,0,398,398,398,1,houses/images/13.jpg,houses/images/63.jpg,399,xxr,001,2020-11-19_21h50.02.695,test2,2020.2.5,MacIntel,60
,,,,z,0.149,0,399,399,399,1,houses/images/307.jpg,houses/images/172.jpg,400,xxr,001,2020-11-19_21h50.02.695,test2,2020.2.5,MacIntel,60
