key_resp.keys,key_resp.rt,key_resp_3.keys,key_resp_3.rt,key_resp_2.keys,key_resp_2.rt,trials.thisRepN,trials.thisTrialN,trials.thisN,trials.thisIndex,trials.ran,image_left,image_right,trial_num,participant,session,date,expName,psychopyVersion,OS,frameRate
space,1.431,space,0.377,z,5.617,0,0,0,0,1,houses/images/0.jpg,houses/images/349.jpg,1,Yang,001,2020-11-19_14h17.36.128,test2,2020.2.5,MacIntel,60
,,,,z,72.709,0,1,1,1,1,houses/images/1.jpg,houses/images/194.jpg,2,Yang,001,2020-11-19_14h17.36.128,test2,2020.2.5,MacIntel,60
,,,,z,1.429,0,2,2,2,1,houses/images/10.jpg,houses/images/159.jpg,3,Yang,001,2020-11-19_14h17.36.128,test2,2020.2.5,MacIntel,60
,,,,m,1.662,0,3,3,3,1,houses/images/100.jpg,houses/images/42.jpg,4,Yang,001,2020-11-19_14h17.36.128,test2,2020.2.5,MacIntel,60
,,,,m,1.716,0,4,4,4,1,houses/images/101.jpg,houses/images/240.jpg,5,Yang,001,2020-11-19_14h17.36.128,test2,2020.2.5,MacIntel,60
,,,,m,2.865,0,5,5,5,1,houses/images/102.jpg,houses/images/201.jpg,6,Yang,001,2020-11-19_14h17.36.128,test2,2020.2.5,MacIntel,60
,,,,z,1.315,0,6,6,6,1,houses/images/103.jpg,houses/images/223.jpg,7,Yang,001,2020-11-19_14h17.36.128,test2,2020.2.5,MacIntel,60
,,,,z,1.582,0,7,7,7,1,houses/images/104.jpg,houses/images/46.jpg,8,Yang,001,2020-11-19_14h17.36.128,test2,2020.2.5,MacIntel,60
,,,,m,1.064,0,8,8,8,1,houses/images/105.jpg,houses/images/109.jpg,9,Yang,001,2020-11-19_14h17.36.128,test2,2020.2.5,MacIntel,60
,,,,z,1.519,0,9,9,9,1,houses/images/106.jpg,houses/images/12.jpg,10,Yang,001,2020-11-19_14h17.36.128,test2,2020.2.5,MacIntel,60
,,,,m,1.205,0,10,10,10,1,houses/images/107.jpg,houses/images/358.jpg,11,Yang,001,2020-11-19_14h17.36.128,test2,2020.2.5,MacIntel,60
,,,,z,3.98,0,11,11,11,1,houses/images/108.jpg,houses/images/197.jpg,12,Yang,001,2020-11-19_14h17.36.128,test2,2020.2.5,MacIntel,60
,,,,z,1.901,0,12,12,12,1,houses/images/109.jpg,houses/images/133.jpg,13,Yang,001,2020-11-19_14h17.36.128,test2,2020.2.5,MacIntel,60
,,,,z,0.9,0,13,13,13,1,houses/images/11.jpg,houses/images/286.jpg,14,Yang,001,2020-11-19_14h17.36.128,test2,2020.2.5,MacIntel,60
,,,,z,1.698,0,14,14,14,1,houses/images/210.jpg,houses/images/33.jpg,15,Yang,001,2020-11-19_14h17.36.128,test2,2020.2.5,MacIntel,60
,,,,z,2.33,0,15,15,15,1,houses/images/111.jpg,houses/images/156.jpg,16,Yang,001,2020-11-19_14h17.36.128,test2,2020.2.5,MacIntel,60
,,,,z,1.12,0,16,16,16,1,houses/images/112.jpg,houses/images/128.jpg,17,Yang,001,2020-11-19_14h17.36.128,test2,2020.2.5,MacIntel,60
,,,,m,1.382,0,17,17,17,1,houses/images/113.jpg,houses/images/306.jpg,18,Yang,001,2020-11-19_14h17.36.128,test2,2020.2.5,MacIntel,60
,,,,m,6.314,0,18,18,18,1,houses/images/114.jpg,houses/images/272.jpg,19,Yang,001,2020-11-19_14h17.36.128,test2,2020.2.5,MacIntel,60
,,,,z,1.716,0,19,19,19,1,houses/images/115.jpg,houses/images/112.jpg,20,Yang,001,2020-11-19_14h17.36.128,test2,2020.2.5,MacIntel,60
,,,,z,126.698,0,20,20,20,1,houses/images/116.jpg,houses/images/101.jpg,21,Yang,001,2020-11-19_14h17.36.128,test2,2020.2.5,MacIntel,60
,,,,m,1.652,0,21,21,21,1,houses/images/117.jpg,houses/images/298.jpg,22,Yang,001,2020-11-19_14h17.36.128,test2,2020.2.5,MacIntel,60
,,,,m,1.947,0,22,22,22,1,houses/images/118.jpg,houses/images/80.jpg,23,Yang,001,2020-11-19_14h17.36.128,test2,2020.2.5,MacIntel,60
,,,,m,1.495,0,23,23,23,1,houses/images/119.jpg,houses/images/329.jpg,24,Yang,001,2020-11-19_14h17.36.128,test2,2020.2.5,MacIntel,60
,,,,z,2.217,0,24,24,24,1,houses/images/12.jpg,houses/images/320.jpg,25,Yang,001,2020-11-19_14h17.36.128,test2,2020.2.5,MacIntel,60
,,,,z,1.147,0,25,25,25,1,houses/images/120.jpg,houses/images/24.jpg,26,Yang,001,2020-11-19_14h17.36.128,test2,2020.2.5,MacIntel,60
,,,,z,0.919,0,26,26,26,1,houses/images/121.jpg,houses/images/341.jpg,27,Yang,001,2020-11-19_14h17.36.128,test2,2020.2.5,MacIntel,60
,,,,m,1.454,0,27,27,27,1,houses/images/122.jpg,houses/images/38.jpg,28,Yang,001,2020-11-19_14h17.36.128,test2,2020.2.5,MacIntel,60
,,,,z,2.452,0,28,28,28,1,houses/images/123.jpg,houses/images/98.jpg,29,Yang,001,2020-11-19_14h17.36.128,test2,2020.2.5,MacIntel,60
,,,,z,1.104,0,29,29,29,1,houses/images/124.jpg,houses/images/213.jpg,30,Yang,001,2020-11-19_14h17.36.128,test2,2020.2.5,MacIntel,60
,,,,z,1.157,0,30,30,30,1,houses/images/225.jpg,houses/images/208.jpg,31,Yang,001,2020-11-19_14h17.36.128,test2,2020.2.5,MacIntel,60
,,,,z,2.205,0,31,31,31,1,houses/images/226.jpg,houses/images/210.jpg,32,Yang,001,2020-11-19_14h17.36.128,test2,2020.2.5,MacIntel,60
,,,,z,1.002,0,32,32,32,1,houses/images/127.jpg,houses/images/90.jpg,33,Yang,001,2020-11-19_14h17.36.128,test2,2020.2.5,MacIntel,60
,,,,z,0.946,0,33,33,33,1,houses/images/128.jpg,houses/images/113.jpg,34,Yang,001,2020-11-19_14h17.36.128,test2,2020.2.5,MacIntel,60
,,,,m,1.433,0,34,34,34,1,houses/images/129.jpg,houses/images/232.jpg,35,Yang,001,2020-11-19_14h17.36.128,test2,2020.2.5,MacIntel,60
,,,,z,1.701,0,35,35,35,1,houses/images/13.jpg,houses/images/359.jpg,36,Yang,001,2020-11-19_14h17.36.128,test2,2020.2.5,MacIntel,60
,,,,m,1.747,0,36,36,36,1,houses/images/130.jpg,houses/images/187.jpg,37,Yang,001,2020-11-19_14h17.36.128,test2,2020.2.5,MacIntel,60
,,,,z,0.921,0,37,37,37,1,houses/images/131.jpg,houses/images/275.jpg,38,Yang,001,2020-11-19_14h17.36.128,test2,2020.2.5,MacIntel,60
,,,,z,1.699,0,38,38,38,1,houses/images/132.jpg,houses/images/162.jpg,39,Yang,001,2020-11-19_14h17.36.128,test2,2020.2.5,MacIntel,60
,,,,m,1.089,0,39,39,39,1,houses/images/133.jpg,houses/images/311.jpg,40,Yang,001,2020-11-19_14h17.36.128,test2,2020.2.5,MacIntel,60
,,,,z,2.182,0,40,40,40,1,houses/images/134.jpg,houses/images/277.jpg,41,Yang,001,2020-11-19_14h17.36.128,test2,2020.2.5,MacIntel,60
,,,,m,2.332,0,41,41,41,1,houses/images/135.jpg,houses/images/71.jpg,42,Yang,001,2020-11-19_14h17.36.128,test2,2020.2.5,MacIntel,60
,,,,z,6.3,0,42,42,42,1,houses/images/236.jpg,houses/images/72.jpg,43,Yang,001,2020-11-19_14h17.36.128,test2,2020.2.5,MacIntel,60
,,,,m,1.985,0,43,43,43,1,houses/images/137.jpg,houses/images/246.jpg,44,Yang,001,2020-11-19_14h17.36.128,test2,2020.2.5,MacIntel,60
,,,,m,2.003,0,44,44,44,1,houses/images/138.jpg,houses/images/174.jpg,45,Yang,001,2020-11-19_14h17.36.128,test2,2020.2.5,MacIntel,60
,,,,m,1.014,0,45,45,45,1,houses/images/239.jpg,houses/images/292.jpg,46,Yang,001,2020-11-19_14h17.36.128,test2,2020.2.5,MacIntel,60
,,,,m,1.851,0,46,46,46,1,houses/images/14.jpg,houses/images/194.jpg,47,Yang,001,2020-11-19_14h17.36.128,test2,2020.2.5,MacIntel,60
,,,,m,2.033,0,47,47,47,1,houses/images/240.jpg,houses/images/180.jpg,48,Yang,001,2020-11-19_14h17.36.128,test2,2020.2.5,MacIntel,60
,,,,m,1.05,0,48,48,48,1,houses/images/141.jpg,houses/images/262.jpg,49,Yang,001,2020-11-19_14h17.36.128,test2,2020.2.5,MacIntel,60
,,,,z,1.05,0,49,49,49,1,houses/images/42.jpg,houses/images/118.jpg,50,Yang,001,2020-11-19_14h17.36.128,test2,2020.2.5,MacIntel,60
,,,,z,1.717,0,50,50,50,1,houses/images/143.jpg,houses/images/316.jpg,51,Yang,001,2020-11-19_14h17.36.128,test2,2020.2.5,MacIntel,60
,,,,m,2.551,0,51,51,51,1,houses/images/144.jpg,houses/images/29.jpg,52,Yang,001,2020-11-19_14h17.36.128,test2,2020.2.5,MacIntel,60
,,,,z,1.085,0,52,52,52,1,houses/images/145.jpg,houses/images/146.jpg,53,Yang,001,2020-11-19_14h17.36.128,test2,2020.2.5,MacIntel,60
,,,,m,1.098,0,53,53,53,1,houses/images/146.jpg,houses/images/342.jpg,54,Yang,001,2020-11-19_14h17.36.128,test2,2020.2.5,MacIntel,60
,,,,m,0.854,0,54,54,54,1,houses/images/147.jpg,houses/images/120.jpg,55,Yang,001,2020-11-19_14h17.36.128,test2,2020.2.5,MacIntel,60
,,,,z,1.08,0,55,55,55,1,houses/images/148.jpg,houses/images/204.jpg,56,Yang,001,2020-11-19_14h17.36.128,test2,2020.2.5,MacIntel,60
,,,,m,0.968,0,56,56,56,1,houses/images/149.jpg,houses/images/292.jpg,57,Yang,001,2020-11-19_14h17.36.128,test2,2020.2.5,MacIntel,60
,,,,m,2.201,0,57,57,57,1,houses/images/15.jpg,houses/images/191.jpg,58,Yang,001,2020-11-19_14h17.36.128,test2,2020.2.5,MacIntel,60
,,,,z,1.647,0,58,58,58,1,houses/images/150.jpg,houses/images/318.jpg,59,Yang,001,2020-11-19_14h17.36.128,test2,2020.2.5,MacIntel,60
,,,,m,1.282,0,59,59,59,1,houses/images/151.jpg,houses/images/255.jpg,60,Yang,001,2020-11-19_14h17.36.128,test2,2020.2.5,MacIntel,60
,,,,z,0.904,0,60,60,60,1,houses/images/152.jpg,houses/images/261.jpg,61,Yang,001,2020-11-19_14h17.36.128,test2,2020.2.5,MacIntel,60
,,,,m,1.218,0,61,61,61,1,houses/images/253.jpg,houses/images/129.jpg,62,Yang,001,2020-11-19_14h17.36.128,test2,2020.2.5,MacIntel,60
,,,,m,1.031,0,62,62,62,1,houses/images/154.jpg,houses/images/36.jpg,63,Yang,001,2020-11-19_14h17.36.128,test2,2020.2.5,MacIntel,60
,,,,m,1.224,0,63,63,63,1,houses/images/155.jpg,houses/images/210.jpg,64,Yang,001,2020-11-19_14h17.36.128,test2,2020.2.5,MacIntel,60
,,,,m,1.591,0,64,64,64,1,houses/images/156.jpg,houses/images/132.jpg,65,Yang,001,2020-11-19_14h17.36.128,test2,2020.2.5,MacIntel,60
,,,,m,0.899,0,65,65,65,1,houses/images/157.jpg,houses/images/70.jpg,66,Yang,001,2020-11-19_14h17.36.128,test2,2020.2.5,MacIntel,60
,,,,m,1.049,0,66,66,66,1,houses/images/158.jpg,houses/images/199.jpg,67,Yang,001,2020-11-19_14h17.36.128,test2,2020.2.5,MacIntel,60
,,,,m,1.03,0,67,67,67,1,houses/images/159.jpg,houses/images/226.jpg,68,Yang,001,2020-11-19_14h17.36.128,test2,2020.2.5,MacIntel,60
,,,,m,0.673,0,68,68,68,1,houses/images/16.jpg,houses/images/50.jpg,69,Yang,001,2020-11-19_14h17.36.128,test2,2020.2.5,MacIntel,60
,,,,z,1.221,0,69,69,69,1,houses/images/160.jpg,houses/images/239.jpg,70,Yang,001,2020-11-19_14h17.36.128,test2,2020.2.5,MacIntel,60
,,,,z,1.566,0,70,70,70,1,houses/images/161.jpg,houses/images/289.jpg,71,Yang,001,2020-11-19_14h17.36.128,test2,2020.2.5,MacIntel,60
,,,,m,0.969,0,71,71,71,1,houses/images/162.jpg,houses/images/325.jpg,72,Yang,001,2020-11-19_14h17.36.128,test2,2020.2.5,MacIntel,60
,,,,m,2.083,0,72,72,72,1,houses/images/163.jpg,houses/images/259.jpg,73,Yang,001,2020-11-19_14h17.36.128,test2,2020.2.5,MacIntel,60
,,,,m,1.407,0,73,73,73,1,houses/images/164.jpg,houses/images/316.jpg,74,Yang,001,2020-11-19_14h17.36.128,test2,2020.2.5,MacIntel,60
,,,,m,1.188,0,74,74,74,1,houses/images/165.jpg,houses/images/311.jpg,75,Yang,001,2020-11-19_14h17.36.128,test2,2020.2.5,MacIntel,60
,,,,z,0.936,0,75,75,75,1,houses/images/166.jpg,houses/images/246.jpg,76,Yang,001,2020-11-19_14h17.36.128,test2,2020.2.5,MacIntel,60
,,,,m,1.522,0,76,76,76,1,houses/images/167.jpg,houses/images/269.jpg,77,Yang,001,2020-11-19_14h17.36.128,test2,2020.2.5,MacIntel,60
,,,,m,2.922,0,77,77,77,1,houses/images/168.jpg,houses/images/360.jpg,78,Yang,001,2020-11-19_14h17.36.128,test2,2020.2.5,MacIntel,60
,,,,z,1.155,0,78,78,78,1,houses/images/169.jpg,houses/images/116.jpg,79,Yang,001,2020-11-19_14h17.36.128,test2,2020.2.5,MacIntel,60
,,,,z,0.832,0,79,79,79,1,houses/images/17.jpg,houses/images/245.jpg,80,Yang,001,2020-11-19_14h17.36.128,test2,2020.2.5,MacIntel,60
,,,,m,1.006,0,80,80,80,1,houses/images/170.jpg,houses/images/152.jpg,81,Yang,001,2020-11-19_14h17.36.128,test2,2020.2.5,MacIntel,60
,,,,z,4.085,0,81,81,81,1,houses/images/171.jpg,houses/images/77.jpg,82,Yang,001,2020-11-19_14h17.36.128,test2,2020.2.5,MacIntel,60
,,,,z,0.886,0,82,82,82,1,houses/images/172.jpg,houses/images/154.jpg,83,Yang,001,2020-11-19_14h17.36.128,test2,2020.2.5,MacIntel,60
,,,,m,1.354,0,83,83,83,1,houses/images/273.jpg,houses/images/210.jpg,84,Yang,001,2020-11-19_14h17.36.128,test2,2020.2.5,MacIntel,60
,,,,m,1.19,0,84,84,84,1,houses/images/174.jpg,houses/images/121.jpg,85,Yang,001,2020-11-19_14h17.36.128,test2,2020.2.5,MacIntel,60
,,,,z,1.432,0,85,85,85,1,houses/images/175.jpg,houses/images/47.jpg,86,Yang,001,2020-11-19_14h17.36.128,test2,2020.2.5,MacIntel,60
,,,,z,2.146,0,86,86,86,1,houses/images/176.jpg,houses/images/328.jpg,87,Yang,001,2020-11-19_14h17.36.128,test2,2020.2.5,MacIntel,60
,,,,m,0.998,0,87,87,87,1,houses/images/177.jpg,houses/images/35.jpg,88,Yang,001,2020-11-19_14h17.36.128,test2,2020.2.5,MacIntel,60
,,,,z,1.097,0,88,88,88,1,houses/images/178.jpg,houses/images/299.jpg,89,Yang,001,2020-11-19_14h17.36.128,test2,2020.2.5,MacIntel,60
,,,,z,0.949,0,89,89,89,1,houses/images/179.jpg,houses/images/283.jpg,90,Yang,001,2020-11-19_14h17.36.128,test2,2020.2.5,MacIntel,60
,,,,z,2.101,0,90,90,90,1,houses/images/18.jpg,houses/images/182.jpg,91,Yang,001,2020-11-19_14h17.36.128,test2,2020.2.5,MacIntel,60
,,,,z,0.94,0,91,91,91,1,houses/images/180.jpg,houses/images/327.jpg,92,Yang,001,2020-11-19_14h17.36.128,test2,2020.2.5,MacIntel,60
,,,,z,1.402,0,92,92,92,1,houses/images/281.jpg,houses/images/334.jpg,93,Yang,001,2020-11-19_14h17.36.128,test2,2020.2.5,MacIntel,60
,,,,m,1.167,0,93,93,93,1,houses/images/182.jpg,houses/images/75.jpg,94,Yang,001,2020-11-19_14h17.36.128,test2,2020.2.5,MacIntel,60
,,,,m,1.684,0,94,94,94,1,houses/images/183.jpg,houses/images/137.jpg,95,Yang,001,2020-11-19_14h17.36.128,test2,2020.2.5,MacIntel,60
,,,,m,2.118,0,95,95,95,1,houses/images/184.jpg,houses/images/344.jpg,96,Yang,001,2020-11-19_14h17.36.128,test2,2020.2.5,MacIntel,60
,,,,z,0.965,0,96,96,96,1,houses/images/185.jpg,houses/images/285.jpg,97,Yang,001,2020-11-19_14h17.36.128,test2,2020.2.5,MacIntel,60
,,,,m,0.94,0,97,97,97,1,houses/images/186.jpg,houses/images/230.jpg,98,Yang,001,2020-11-19_14h17.36.128,test2,2020.2.5,MacIntel,60
,,,,z,1.073,0,98,98,98,1,houses/images/187.jpg,houses/images/3.jpg,99,Yang,001,2020-11-19_14h17.36.128,test2,2020.2.5,MacIntel,60
,,,,m,1.465,0,99,99,99,1,houses/images/188.jpg,houses/images/304.jpg,100,Yang,001,2020-11-19_14h17.36.128,test2,2020.2.5,MacIntel,60
,,,,m,0.934,0,100,100,100,1,houses/images/189.jpg,houses/images/17.jpg,101,Yang,001,2020-11-19_14h17.36.128,test2,2020.2.5,MacIntel,60
,,,,z,1.03,0,101,101,101,1,houses/images/19.jpg,houses/images/351.jpg,102,Yang,001,2020-11-19_14h17.36.128,test2,2020.2.5,MacIntel,60
,,,,m,2.116,0,102,102,102,1,houses/images/190.jpg,houses/images/307.jpg,103,Yang,001,2020-11-19_14h17.36.128,test2,2020.2.5,MacIntel,60
,,,,z,0.952,0,103,103,103,1,houses/images/191.jpg,houses/images/326.jpg,104,Yang,001,2020-11-19_14h17.36.128,test2,2020.2.5,MacIntel,60
,,,,z,1.06,0,104,104,104,1,houses/images/292.jpg,houses/images/240.jpg,105,Yang,001,2020-11-19_14h17.36.128,test2,2020.2.5,MacIntel,60
,,,,m,1.331,0,105,105,105,1,houses/images/193.jpg,houses/images/243.jpg,106,Yang,001,2020-11-19_14h17.36.128,test2,2020.2.5,MacIntel,60
,,,,m,0.735,0,106,106,106,1,houses/images/194.jpg,houses/images/291.jpg,107,Yang,001,2020-11-19_14h17.36.128,test2,2020.2.5,MacIntel,60
,,,,m,1.213,0,107,107,107,1,houses/images/195.jpg,houses/images/361.jpg,108,Yang,001,2020-11-19_14h17.36.128,test2,2020.2.5,MacIntel,60
,,,,z,1,0,108,108,108,1,houses/images/196.jpg,houses/images/30.jpg,109,Yang,001,2020-11-19_14h17.36.128,test2,2020.2.5,MacIntel,60
,,,,m,0.903,0,109,109,109,1,houses/images/197.jpg,houses/images/22.jpg,110,Yang,001,2020-11-19_14h17.36.128,test2,2020.2.5,MacIntel,60
,,,,m,0.948,0,110,110,110,1,houses/images/198.jpg,houses/images/250.jpg,111,Yang,001,2020-11-19_14h17.36.128,test2,2020.2.5,MacIntel,60
,,,,m,0.758,0,111,111,111,1,houses/images/199.jpg,houses/images/323.jpg,112,Yang,001,2020-11-19_14h17.36.128,test2,2020.2.5,MacIntel,60
,,,,m,2.154,0,112,112,112,1,houses/images/2.jpg,houses/images/187.jpg,113,Yang,001,2020-11-19_14h17.36.128,test2,2020.2.5,MacIntel,60
,,,,z,0.956,0,113,113,113,1,houses/images/20.jpg,houses/images/100.jpg,114,Yang,001,2020-11-19_14h17.36.128,test2,2020.2.5,MacIntel,60
,,,,z,0.953,0,114,114,114,1,houses/images/200.jpg,houses/images/238.jpg,115,Yang,001,2020-11-19_14h17.36.128,test2,2020.2.5,MacIntel,60
,,,,m,1.302,0,115,115,115,1,houses/images/201.jpg,houses/images/58.jpg,116,Yang,001,2020-11-19_14h17.36.128,test2,2020.2.5,MacIntel,60
,,,,z,1.583,0,116,116,116,1,houses/images/202.jpg,houses/images/205.jpg,117,Yang,001,2020-11-19_14h17.36.128,test2,2020.2.5,MacIntel,60
,,,,z,1.28,0,117,117,117,1,houses/images/203.jpg,houses/images/40.jpg,118,Yang,001,2020-11-19_14h17.36.128,test2,2020.2.5,MacIntel,60
,,,,m,1.722,0,118,118,118,1,houses/images/204.jpg,houses/images/64.jpg,119,Yang,001,2020-11-19_14h17.36.128,test2,2020.2.5,MacIntel,60
,,,,z,1.107,0,119,119,119,1,houses/images/205.jpg,houses/images/155.jpg,120,Yang,001,2020-11-19_14h17.36.128,test2,2020.2.5,MacIntel,60
,,,,m,1.102,0,120,120,120,1,houses/images/206.jpg,houses/images/199.jpg,121,Yang,001,2020-11-19_14h17.36.128,test2,2020.2.5,MacIntel,60
,,,,m,1.197,0,121,121,121,1,houses/images/207.jpg,houses/images/233.jpg,122,Yang,001,2020-11-19_14h17.36.128,test2,2020.2.5,MacIntel,60
,,,,m,2.156,0,122,122,122,1,houses/images/208.jpg,houses/images/8.jpg,123,Yang,001,2020-11-19_14h17.36.128,test2,2020.2.5,MacIntel,60
,,,,z,1.301,0,123,123,123,1,houses/images/209.jpg,houses/images/167.jpg,124,Yang,001,2020-11-19_14h17.36.128,test2,2020.2.5,MacIntel,60
,,,,z,1.06,0,124,124,124,1,houses/images/21.jpg,houses/images/103.jpg,125,Yang,001,2020-11-19_14h17.36.128,test2,2020.2.5,MacIntel,60
,,,,m,2.241,0,125,125,125,1,houses/images/210.jpg,houses/images/104.jpg,126,Yang,001,2020-11-19_14h17.36.128,test2,2020.2.5,MacIntel,60
,,,,m,1.634,0,126,126,126,1,houses/images/211.jpg,houses/images/327.jpg,127,Yang,001,2020-11-19_14h17.36.128,test2,2020.2.5,MacIntel,60
,,,,m,3.058,0,127,127,127,1,houses/images/212.jpg,houses/images/253.jpg,128,Yang,001,2020-11-19_14h17.36.128,test2,2020.2.5,MacIntel,60
,,,,m,2.337,0,128,128,128,1,houses/images/213.jpg,houses/images/26.jpg,129,Yang,001,2020-11-19_14h17.36.128,test2,2020.2.5,MacIntel,60
,,,,m,1.317,0,129,129,129,1,houses/images/214.jpg,houses/images/198.jpg,130,Yang,001,2020-11-19_14h17.36.128,test2,2020.2.5,MacIntel,60
,,,,z,1.262,0,130,130,130,1,houses/images/215.jpg,houses/images/4.jpg,131,Yang,001,2020-11-19_14h17.36.128,test2,2020.2.5,MacIntel,60
,,,,z,2.306,0,131,131,131,1,houses/images/316.jpg,houses/images/62.jpg,132,Yang,001,2020-11-19_14h17.36.128,test2,2020.2.5,MacIntel,60
,,,,m,1.568,0,132,132,132,1,houses/images/217.jpg,houses/images/114.jpg,133,Yang,001,2020-11-19_14h17.36.128,test2,2020.2.5,MacIntel,60
,,,,m,1.072,0,133,133,133,1,houses/images/318.jpg,houses/images/308.jpg,134,Yang,001,2020-11-19_14h17.36.128,test2,2020.2.5,MacIntel,60
,,,,z,1.599,0,134,134,134,1,houses/images/219.jpg,houses/images/254.jpg,135,Yang,001,2020-11-19_14h17.36.128,test2,2020.2.5,MacIntel,60
,,,,m,1.177,0,135,135,135,1,houses/images/22.jpg,houses/images/170.jpg,136,Yang,001,2020-11-19_14h17.36.128,test2,2020.2.5,MacIntel,60
,,,,m,1.05,0,136,136,136,1,houses/images/220.jpg,houses/images/179.jpg,137,Yang,001,2020-11-19_14h17.36.128,test2,2020.2.5,MacIntel,60
,,,,z,1.783,0,137,137,137,1,houses/images/221.jpg,houses/images/238.jpg,138,Yang,001,2020-11-19_14h17.36.128,test2,2020.2.5,MacIntel,60
,,,,m,1.096,0,138,138,138,1,houses/images/222.jpg,houses/images/256.jpg,139,Yang,001,2020-11-19_14h17.36.128,test2,2020.2.5,MacIntel,60
,,,,m,1.45,0,139,139,139,1,houses/images/223.jpg,houses/images/322.jpg,140,Yang,001,2020-11-19_14h17.36.128,test2,2020.2.5,MacIntel,60
,,,,m,4.567,0,140,140,140,1,houses/images/224.jpg,houses/images/209.jpg,141,Yang,001,2020-11-19_14h17.36.128,test2,2020.2.5,MacIntel,60
,,,,z,1.84,0,141,141,141,1,houses/images/225.jpg,houses/images/219.jpg,142,Yang,001,2020-11-19_14h17.36.128,test2,2020.2.5,MacIntel,60
,,,,m,0.98,0,142,142,142,1,houses/images/226.jpg,houses/images/79.jpg,143,Yang,001,2020-11-19_14h17.36.128,test2,2020.2.5,MacIntel,60
,,,,z,1.965,0,143,143,143,1,houses/images/227.jpg,houses/images/279.jpg,144,Yang,001,2020-11-19_14h17.36.128,test2,2020.2.5,MacIntel,60
,,,,z,1.082,0,144,144,144,1,houses/images/228.jpg,houses/images/111.jpg,145,Yang,001,2020-11-19_14h17.36.128,test2,2020.2.5,MacIntel,60
,,,,m,8.545,0,145,145,145,1,houses/images/229.jpg,houses/images/257.jpg,146,Yang,001,2020-11-19_14h17.36.128,test2,2020.2.5,MacIntel,60
,,,,z,1.885,0,146,146,146,1,houses/images/23.jpg,houses/images/318.jpg,147,Yang,001,2020-11-19_14h17.36.128,test2,2020.2.5,MacIntel,60
,,,,z,1.638,0,147,147,147,1,houses/images/230.jpg,houses/images/312.jpg,148,Yang,001,2020-11-19_14h17.36.128,test2,2020.2.5,MacIntel,60
,,,,z,3.403,0,148,148,148,1,houses/images/231.jpg,houses/images/253.jpg,149,Yang,001,2020-11-19_14h17.36.128,test2,2020.2.5,MacIntel,60
,,,,z,1.876,0,149,149,149,1,houses/images/232.jpg,houses/images/236.jpg,150,Yang,001,2020-11-19_14h17.36.128,test2,2020.2.5,MacIntel,60
,,,,z,1.549,0,150,150,150,1,houses/images/233.jpg,houses/images/66.jpg,151,Yang,001,2020-11-19_14h17.36.128,test2,2020.2.5,MacIntel,60
,,,,m,1.252,0,151,151,151,1,houses/images/234.jpg,houses/images/138.jpg,152,Yang,001,2020-11-19_14h17.36.128,test2,2020.2.5,MacIntel,60
,,,,z,1.475,0,152,152,152,1,houses/images/235.jpg,houses/images/124.jpg,153,Yang,001,2020-11-19_14h17.36.128,test2,2020.2.5,MacIntel,60
,,,,m,1.228,0,153,153,153,1,houses/images/236.jpg,houses/images/160.jpg,154,Yang,001,2020-11-19_14h17.36.128,test2,2020.2.5,MacIntel,60
,,,,m,6.353,0,154,154,154,1,houses/images/237.jpg,houses/images/314.jpg,155,Yang,001,2020-11-19_14h17.36.128,test2,2020.2.5,MacIntel,60
,,,,m,1.095,0,155,155,155,1,houses/images/238.jpg,houses/images/145.jpg,156,Yang,001,2020-11-19_14h17.36.128,test2,2020.2.5,MacIntel,60
,,,,m,1.714,0,156,156,156,1,houses/images/239.jpg,houses/images/195.jpg,157,Yang,001,2020-11-19_14h17.36.128,test2,2020.2.5,MacIntel,60
,,,,m,1.078,0,157,157,157,1,houses/images/24.jpg,houses/images/0.jpg,158,Yang,001,2020-11-19_14h17.36.128,test2,2020.2.5,MacIntel,60
,,,,z,1.403,0,158,158,158,1,houses/images/240.jpg,houses/images/81.jpg,159,Yang,001,2020-11-19_14h17.36.128,test2,2020.2.5,MacIntel,60
,,,,m,1.342,0,159,159,159,1,houses/images/241.jpg,houses/images/226.jpg,160,Yang,001,2020-11-19_14h17.36.128,test2,2020.2.5,MacIntel,60
,,,,m,0.858,0,160,160,160,1,houses/images/342.jpg,houses/images/319.jpg,161,Yang,001,2020-11-19_14h17.36.128,test2,2020.2.5,MacIntel,60
,,,,z,1.44,0,161,161,161,1,houses/images/243.jpg,houses/images/23.jpg,162,Yang,001,2020-11-19_14h17.36.128,test2,2020.2.5,MacIntel,60
,,,,z,1.203,0,162,162,162,1,houses/images/244.jpg,houses/images/146.jpg,163,Yang,001,2020-11-19_14h17.36.128,test2,2020.2.5,MacIntel,60
,,,,z,1.662,0,163,163,163,1,houses/images/245.jpg,houses/images/28.jpg,164,Yang,001,2020-11-19_14h17.36.128,test2,2020.2.5,MacIntel,60
,,,,m,4.646,0,164,164,164,1,houses/images/246.jpg,houses/images/157.jpg,165,Yang,001,2020-11-19_14h17.36.128,test2,2020.2.5,MacIntel,60
,,,,m,1.487,0,165,165,165,1,houses/images/247.jpg,houses/images/2.jpg,166,Yang,001,2020-11-19_14h17.36.128,test2,2020.2.5,MacIntel,60
,,,,m,1.551,0,166,166,166,1,houses/images/248.jpg,houses/images/87.jpg,167,Yang,001,2020-11-19_14h17.36.128,test2,2020.2.5,MacIntel,60
,,,,m,2.246,0,167,167,167,1,houses/images/249.jpg,houses/images/270.jpg,168,Yang,001,2020-11-19_14h17.36.128,test2,2020.2.5,MacIntel,60
,,,,z,2.469,0,168,168,168,1,houses/images/25.jpg,houses/images/67.jpg,169,Yang,001,2020-11-19_14h17.36.128,test2,2020.2.5,MacIntel,60
,,,,z,1.064,0,169,169,169,1,houses/images/250.jpg,houses/images/234.jpg,170,Yang,001,2020-11-19_14h17.36.128,test2,2020.2.5,MacIntel,60
,,,,z,1.083,0,170,170,170,1,houses/images/251.jpg,houses/images/16.jpg,171,Yang,001,2020-11-19_14h17.36.128,test2,2020.2.5,MacIntel,60
,,,,z,0.974,0,171,171,171,1,houses/images/252.jpg,houses/images/12.jpg,172,Yang,001,2020-11-19_14h17.36.128,test2,2020.2.5,MacIntel,60
,,,,m,1.248,0,172,172,172,1,houses/images/253.jpg,houses/images/185.jpg,173,Yang,001,2020-11-19_14h17.36.128,test2,2020.2.5,MacIntel,60
,,,,m,1.422,0,173,173,173,1,houses/images/254.jpg,houses/images/39.jpg,174,Yang,001,2020-11-19_14h17.36.128,test2,2020.2.5,MacIntel,60
,,,,z,1.061,0,174,174,174,1,houses/images/255.jpg,houses/images/237.jpg,175,Yang,001,2020-11-19_14h17.36.128,test2,2020.2.5,MacIntel,60
,,,,z,3.35,0,175,175,175,1,houses/images/256.jpg,houses/images/356.jpg,176,Yang,001,2020-11-19_14h17.36.128,test2,2020.2.5,MacIntel,60
,,,,z,1.162,0,176,176,176,1,houses/images/257.jpg,houses/images/107.jpg,177,Yang,001,2020-11-19_14h17.36.128,test2,2020.2.5,MacIntel,60
,,,,z,1.337,0,177,177,177,1,houses/images/258.jpg,houses/images/84.jpg,178,Yang,001,2020-11-19_14h17.36.128,test2,2020.2.5,MacIntel,60
,,,,z,2.065,0,178,178,178,1,houses/images/259.jpg,houses/images/119.jpg,179,Yang,001,2020-11-19_14h17.36.128,test2,2020.2.5,MacIntel,60
,,,,z,1.26,0,179,179,179,1,houses/images/26.jpg,houses/images/227.jpg,180,Yang,001,2020-11-19_14h17.36.128,test2,2020.2.5,MacIntel,60
,,,,z,1.467,0,180,180,180,1,houses/images/260.jpg,houses/images/238.jpg,181,Yang,001,2020-11-19_14h17.36.128,test2,2020.2.5,MacIntel,60
,,,,z,1.151,0,181,181,181,1,houses/images/261.jpg,houses/images/337.jpg,182,Yang,001,2020-11-19_14h17.36.128,test2,2020.2.5,MacIntel,60
,,,,z,1.094,0,182,182,182,1,houses/images/262.jpg,houses/images/214.jpg,183,Yang,001,2020-11-19_14h17.36.128,test2,2020.2.5,MacIntel,60
,,,,z,1.089,0,183,183,183,1,houses/images/263.jpg,houses/images/239.jpg,184,Yang,001,2020-11-19_14h17.36.128,test2,2020.2.5,MacIntel,60
,,,,z,1.4,0,184,184,184,1,houses/images/264.jpg,houses/images/149.jpg,185,Yang,001,2020-11-19_14h17.36.128,test2,2020.2.5,MacIntel,60
,,,,m,1.053,0,185,185,185,1,houses/images/265.jpg,houses/images/68.jpg,186,Yang,001,2020-11-19_14h17.36.128,test2,2020.2.5,MacIntel,60
,,,,m,1.317,0,186,186,186,1,houses/images/266.jpg,houses/images/271.jpg,187,Yang,001,2020-11-19_14h17.36.128,test2,2020.2.5,MacIntel,60
,,,,z,1.84,0,187,187,187,1,houses/images/267.jpg,houses/images/87.jpg,188,Yang,001,2020-11-19_14h17.36.128,test2,2020.2.5,MacIntel,60
,,,,z,1.046,0,188,188,188,1,houses/images/268.jpg,houses/images/348.jpg,189,Yang,001,2020-11-19_14h17.36.128,test2,2020.2.5,MacIntel,60
,,,,m,0.791,0,189,189,189,1,houses/images/269.jpg,houses/images/228.jpg,190,Yang,001,2020-11-19_14h17.36.128,test2,2020.2.5,MacIntel,60
,,,,z,2.019,0,190,190,190,1,houses/images/27.jpg,houses/images/317.jpg,191,Yang,001,2020-11-19_14h17.36.128,test2,2020.2.5,MacIntel,60
,,,,m,2.174,0,191,191,191,1,houses/images/270.jpg,houses/images/10.jpg,192,Yang,001,2020-11-19_14h17.36.128,test2,2020.2.5,MacIntel,60
,,,,z,0.808,0,192,192,192,1,houses/images/271.jpg,houses/images/222.jpg,193,Yang,001,2020-11-19_14h17.36.128,test2,2020.2.5,MacIntel,60
,,,,m,0.954,0,193,193,193,1,houses/images/272.jpg,houses/images/314.jpg,194,Yang,001,2020-11-19_14h17.36.128,test2,2020.2.5,MacIntel,60
,,,,z,0.924,0,194,194,194,1,houses/images/273.jpg,houses/images/28.jpg,195,Yang,001,2020-11-19_14h17.36.128,test2,2020.2.5,MacIntel,60
,,,,z,2.451,0,195,195,195,1,houses/images/174.jpg,houses/images/294.jpg,196,Yang,001,2020-11-19_14h17.36.128,test2,2020.2.5,MacIntel,60
,,,,m,0.009,0,196,196,196,1,houses/images/275.jpg,houses/images/60.jpg,197,Yang,001,2020-11-19_14h17.36.128,test2,2020.2.5,MacIntel,60
,,,,z,2.395,0,197,197,197,1,houses/images/276.jpg,houses/images/144.jpg,198,Yang,001,2020-11-19_14h17.36.128,test2,2020.2.5,MacIntel,60
,,,,z,4.697,0,198,198,198,1,houses/images/277.jpg,houses/images/168.jpg,199,Yang,001,2020-11-19_14h17.36.128,test2,2020.2.5,MacIntel,60
,,,,z,0.942,0,199,199,199,1,houses/images/278.jpg,houses/images/206.jpg,200,Yang,001,2020-11-19_14h17.36.128,test2,2020.2.5,MacIntel,60
,,,,z,2.551,0,200,200,200,1,houses/images/279.jpg,houses/images/91.jpg,201,Yang,001,2020-11-19_14h17.36.128,test2,2020.2.5,MacIntel,60
,,,,z,1.27,0,201,201,201,1,houses/images/28.jpg,houses/images/49.jpg,202,Yang,001,2020-11-19_14h17.36.128,test2,2020.2.5,MacIntel,60
,,,,z,1.232,0,202,202,202,1,houses/images/280.jpg,houses/images/163.jpg,203,Yang,001,2020-11-19_14h17.36.128,test2,2020.2.5,MacIntel,60
,,,,z,0.81,0,203,203,203,1,houses/images/281.jpg,houses/images/176.jpg,204,Yang,001,2020-11-19_14h17.36.128,test2,2020.2.5,MacIntel,60
,,,,m,1.739,0,204,204,204,1,houses/images/282.jpg,houses/images/263.jpg,205,Yang,001,2020-11-19_14h17.36.128,test2,2020.2.5,MacIntel,60
,,,,z,1.367,0,205,205,205,1,houses/images/283.jpg,houses/images/303.jpg,206,Yang,001,2020-11-19_14h17.36.128,test2,2020.2.5,MacIntel,60
,,,,m,3.133,0,206,206,206,1,houses/images/284.jpg,houses/images/184.jpg,207,Yang,001,2020-11-19_14h17.36.128,test2,2020.2.5,MacIntel,60
,,,,m,1.623,0,207,207,207,1,houses/images/285.jpg,houses/images/264.jpg,208,Yang,001,2020-11-19_14h17.36.128,test2,2020.2.5,MacIntel,60
,,,,z,1.574,0,208,208,208,1,houses/images/286.jpg,houses/images/89.jpg,209,Yang,001,2020-11-19_14h17.36.128,test2,2020.2.5,MacIntel,60
,,,,z,1.67,0,209,209,209,1,houses/images/187.jpg,houses/images/350.jpg,210,Yang,001,2020-11-19_14h17.36.128,test2,2020.2.5,MacIntel,60
,,,,m,1.332,0,210,210,210,1,houses/images/288.jpg,houses/images/267.jpg,211,Yang,001,2020-11-19_14h17.36.128,test2,2020.2.5,MacIntel,60
,,,,m,1.468,0,211,211,211,1,houses/images/289.jpg,houses/images/332.jpg,212,Yang,001,2020-11-19_14h17.36.128,test2,2020.2.5,MacIntel,60
,,,,z,3.724,0,212,212,212,1,houses/images/29.jpg,houses/images/61.jpg,213,Yang,001,2020-11-19_14h17.36.128,test2,2020.2.5,MacIntel,60
,,,,m,1.568,0,213,213,213,1,houses/images/290.jpg,houses/images/102.jpg,214,Yang,001,2020-11-19_14h17.36.128,test2,2020.2.5,MacIntel,60
,,,,z,3.122,0,214,214,214,1,houses/images/291.jpg,houses/images/220.jpg,215,Yang,001,2020-11-19_14h17.36.128,test2,2020.2.5,MacIntel,60
,,,,m,1.89,0,215,215,215,1,houses/images/292.jpg,houses/images/121.jpg,216,Yang,001,2020-11-19_14h17.36.128,test2,2020.2.5,MacIntel,60
,,,,z,1.852,0,216,216,216,1,houses/images/293.jpg,houses/images/25.jpg,217,Yang,001,2020-11-19_14h17.36.128,test2,2020.2.5,MacIntel,60
,,,,m,1.008,0,217,217,217,1,houses/images/294.jpg,houses/images/284.jpg,218,Yang,001,2020-11-19_14h17.36.128,test2,2020.2.5,MacIntel,60
,,,,m,1.234,0,218,218,218,1,houses/images/295.jpg,houses/images/273.jpg,219,Yang,001,2020-11-19_14h17.36.128,test2,2020.2.5,MacIntel,60
,,,,m,1.423,0,219,219,219,1,houses/images/296.jpg,houses/images/122.jpg,220,Yang,001,2020-11-19_14h17.36.128,test2,2020.2.5,MacIntel,60
,,,,m,1.464,0,220,220,220,1,houses/images/297.jpg,houses/images/217.jpg,221,Yang,001,2020-11-19_14h17.36.128,test2,2020.2.5,MacIntel,60
,,,,z,1.495,0,221,221,221,1,houses/images/298.jpg,houses/images/178.jpg,222,Yang,001,2020-11-19_14h17.36.128,test2,2020.2.5,MacIntel,60
,,,,m,1.607,0,222,222,222,1,houses/images/299.jpg,houses/images/43.jpg,223,Yang,001,2020-11-19_14h17.36.128,test2,2020.2.5,MacIntel,60
,,,,m,2.829,0,223,223,223,1,houses/images/3.jpg,houses/images/229.jpg,224,Yang,001,2020-11-19_14h17.36.128,test2,2020.2.5,MacIntel,60
,,,,m,2.046,0,224,224,224,1,houses/images/30.jpg,houses/images/177.jpg,225,Yang,001,2020-11-19_14h17.36.128,test2,2020.2.5,MacIntel,60
,,,,z,1.218,0,225,225,225,1,houses/images/300.jpg,houses/images/342.jpg,226,Yang,001,2020-11-19_14h17.36.128,test2,2020.2.5,MacIntel,60
,,,,z,0.989,0,226,226,226,1,houses/images/201.jpg,houses/images/57.jpg,227,Yang,001,2020-11-19_14h17.36.128,test2,2020.2.5,MacIntel,60
,,,,z,0.867,0,227,227,227,1,houses/images/302.jpg,houses/images/186.jpg,228,Yang,001,2020-11-19_14h17.36.128,test2,2020.2.5,MacIntel,60
,,,,m,0.807,0,228,228,228,1,houses/images/303.jpg,houses/images/131.jpg,229,Yang,001,2020-11-19_14h17.36.128,test2,2020.2.5,MacIntel,60
,,,,m,1.119,0,229,229,229,1,houses/images/304.jpg,houses/images/183.jpg,230,Yang,001,2020-11-19_14h17.36.128,test2,2020.2.5,MacIntel,60
,,,,m,1.752,0,230,230,230,1,houses/images/305.jpg,houses/images/200.jpg,231,Yang,001,2020-11-19_14h17.36.128,test2,2020.2.5,MacIntel,60
,,,,m,1.339,0,231,231,231,1,houses/images/306.jpg,houses/images/94.jpg,232,Yang,001,2020-11-19_14h17.36.128,test2,2020.2.5,MacIntel,60
,,,,z,1.939,0,232,232,232,1,houses/images/307.jpg,houses/images/96.jpg,233,Yang,001,2020-11-19_14h17.36.128,test2,2020.2.5,MacIntel,60
,,,,m,2.3,0,233,233,233,1,houses/images/308.jpg,houses/images/76.jpg,234,Yang,001,2020-11-19_14h17.36.128,test2,2020.2.5,MacIntel,60
,,,,m,0.981,0,234,234,234,1,houses/images/309.jpg,houses/images/78.jpg,235,Yang,001,2020-11-19_14h17.36.128,test2,2020.2.5,MacIntel,60
,,,,m,1.071,0,235,235,235,1,houses/images/31.jpg,houses/images/76.jpg,236,Yang,001,2020-11-19_14h17.36.128,test2,2020.2.5,MacIntel,60
,,,,m,0.905,0,236,236,236,1,houses/images/310.jpg,houses/images/128.jpg,237,Yang,001,2020-11-19_14h17.36.128,test2,2020.2.5,MacIntel,60
,,,,m,1.046,0,237,237,237,1,houses/images/311.jpg,houses/images/190.jpg,238,Yang,001,2020-11-19_14h17.36.128,test2,2020.2.5,MacIntel,60
,,,,m,1.071,0,238,238,238,1,houses/images/312.jpg,houses/images/5.jpg,239,Yang,001,2020-11-19_14h17.36.128,test2,2020.2.5,MacIntel,60
,,,,z,0.951,0,239,239,239,1,houses/images/313.jpg,houses/images/188.jpg,240,Yang,001,2020-11-19_14h17.36.128,test2,2020.2.5,MacIntel,60
,,,,z,1.141,0,240,240,240,1,houses/images/314.jpg,houses/images/342.jpg,241,Yang,001,2020-11-19_14h17.36.128,test2,2020.2.5,MacIntel,60
,,,,m,0.801,0,241,241,241,1,houses/images/315.jpg,houses/images/288.jpg,242,Yang,001,2020-11-19_14h17.36.128,test2,2020.2.5,MacIntel,60
,,,,m,0.986,0,242,242,242,1,houses/images/316.jpg,houses/images/321.jpg,243,Yang,001,2020-11-19_14h17.36.128,test2,2020.2.5,MacIntel,60
,,,,z,1.002,0,243,243,243,1,houses/images/317.jpg,houses/images/82.jpg,244,Yang,001,2020-11-19_14h17.36.128,test2,2020.2.5,MacIntel,60
,,,,m,1.011,0,244,244,244,1,houses/images/318.jpg,houses/images/169.jpg,245,Yang,001,2020-11-19_14h17.36.128,test2,2020.2.5,MacIntel,60
,,,,z,1.226,0,245,245,245,1,houses/images/319.jpg,houses/images/224.jpg,246,Yang,001,2020-11-19_14h17.36.128,test2,2020.2.5,MacIntel,60
,,,,m,2.768,0,246,246,246,1,houses/images/32.jpg,houses/images/175.jpg,247,Yang,001,2020-11-19_14h17.36.128,test2,2020.2.5,MacIntel,60
,,,,z,0.931,0,247,247,247,1,houses/images/320.jpg,houses/images/247.jpg,248,Yang,001,2020-11-19_14h17.36.128,test2,2020.2.5,MacIntel,60
,,,,m,3.322,0,248,248,248,1,houses/images/321.jpg,houses/images/97.jpg,249,Yang,001,2020-11-19_14h17.36.128,test2,2020.2.5,MacIntel,60
,,,,m,4.883,0,249,249,249,1,houses/images/322.jpg,houses/images/74.jpg,250,Yang,001,2020-11-19_14h17.36.128,test2,2020.2.5,MacIntel,60
,,,,z,1.014,0,250,250,250,1,houses/images/323.jpg,houses/images/148.jpg,251,Yang,001,2020-11-19_14h17.36.128,test2,2020.2.5,MacIntel,60
,,,,z,0.72,0,251,251,251,1,houses/images/324.jpg,houses/images/313.jpg,252,Yang,001,2020-11-19_14h17.36.128,test2,2020.2.5,MacIntel,60
,,,,m,1.424,0,252,252,252,1,houses/images/325.jpg,houses/images/11.jpg,253,Yang,001,2020-11-19_14h17.36.128,test2,2020.2.5,MacIntel,60
,,,,z,1.045,0,253,253,253,1,houses/images/326.jpg,houses/images/21.jpg,254,Yang,001,2020-11-19_14h17.36.128,test2,2020.2.5,MacIntel,60
,,,,m,0.942,0,254,254,254,1,houses/images/327.jpg,houses/images/281.jpg,255,Yang,001,2020-11-19_14h17.36.128,test2,2020.2.5,MacIntel,60
,,,,m,0.742,0,255,255,255,1,houses/images/328.jpg,houses/images/172.jpg,256,Yang,001,2020-11-19_14h17.36.128,test2,2020.2.5,MacIntel,60
,,,,z,1.562,0,256,256,256,1,houses/images/329.jpg,houses/images/273.jpg,257,Yang,001,2020-11-19_14h17.36.128,test2,2020.2.5,MacIntel,60
,,,,z,1.042,0,257,257,257,1,houses/images/33.jpg,houses/images/239.jpg,258,Yang,001,2020-11-19_14h17.36.128,test2,2020.2.5,MacIntel,60
,,,,z,0.93,0,258,258,258,1,houses/images/330.jpg,houses/images/333.jpg,259,Yang,001,2020-11-19_14h17.36.128,test2,2020.2.5,MacIntel,60
,,,,z,0.967,0,259,259,259,1,houses/images/331.jpg,houses/images/361.jpg,260,Yang,001,2020-11-19_14h17.36.128,test2,2020.2.5,MacIntel,60
,,,,z,0.841,0,260,260,260,1,houses/images/332.jpg,houses/images/91.jpg,261,Yang,001,2020-11-19_14h17.36.128,test2,2020.2.5,MacIntel,60
,,,,z,1.01,0,261,261,261,1,houses/images/333.jpg,houses/images/158.jpg,262,Yang,001,2020-11-19_14h17.36.128,test2,2020.2.5,MacIntel,60
,,,,m,0.955,0,262,262,262,1,houses/images/334.jpg,houses/images/10.jpg,263,Yang,001,2020-11-19_14h17.36.128,test2,2020.2.5,MacIntel,60
,,,,z,1.002,0,263,263,263,1,houses/images/335.jpg,houses/images/331.jpg,264,Yang,001,2020-11-19_14h17.36.128,test2,2020.2.5,MacIntel,60
,,,,m,0.884,0,264,264,264,1,houses/images/336.jpg,houses/images/171.jpg,265,Yang,001,2020-11-19_14h17.36.128,test2,2020.2.5,MacIntel,60
,,,,m,1.074,0,265,265,265,1,houses/images/337.jpg,houses/images/226.jpg,266,Yang,001,2020-11-19_14h17.36.128,test2,2020.2.5,MacIntel,60
,,,,m,1.641,0,266,266,266,1,houses/images/238.jpg,houses/images/214.jpg,267,Yang,001,2020-11-19_14h17.36.128,test2,2020.2.5,MacIntel,60
,,,,m,1.573,0,267,267,267,1,houses/images/239.jpg,houses/images/130.jpg,268,Yang,001,2020-11-19_14h17.36.128,test2,2020.2.5,MacIntel,60
,,,,m,2.015,0,268,268,268,1,houses/images/34.jpg,houses/images/85.jpg,269,Yang,001,2020-11-19_14h17.36.128,test2,2020.2.5,MacIntel,60
,,,,z,1.352,0,269,269,269,1,houses/images/340.jpg,houses/images/248.jpg,270,Yang,001,2020-11-19_14h17.36.128,test2,2020.2.5,MacIntel,60
,,,,m,2.294,0,270,270,270,1,houses/images/341.jpg,houses/images/215.jpg,271,Yang,001,2020-11-19_14h17.36.128,test2,2020.2.5,MacIntel,60
,,,,z,1.711,0,271,271,271,1,houses/images/342.jpg,houses/images/155.jpg,272,Yang,001,2020-11-19_14h17.36.128,test2,2020.2.5,MacIntel,60
,,,,z,0.817,0,272,272,272,1,houses/images/343.jpg,houses/images/193.jpg,273,Yang,001,2020-11-19_14h17.36.128,test2,2020.2.5,MacIntel,60
,,,,m,0.559,0,273,273,273,1,houses/images/344.jpg,houses/images/324.jpg,274,Yang,001,2020-11-19_14h17.36.128,test2,2020.2.5,MacIntel,60
,,,,z,1.748,0,274,274,274,1,houses/images/345.jpg,houses/images/86.jpg,275,Yang,001,2020-11-19_14h17.36.128,test2,2020.2.5,MacIntel,60
,,,,m,0.741,0,275,275,275,1,houses/images/246.jpg,houses/images/295.jpg,276,Yang,001,2020-11-19_14h17.36.128,test2,2020.2.5,MacIntel,60
,,,,z,0.801,0,276,276,276,1,houses/images/347.jpg,houses/images/292.jpg,277,Yang,001,2020-11-19_14h17.36.128,test2,2020.2.5,MacIntel,60
,,,,m,1.123,0,277,277,277,1,houses/images/348.jpg,houses/images/55.jpg,278,Yang,001,2020-11-19_14h17.36.128,test2,2020.2.5,MacIntel,60
,,,,m,1.078,0,278,278,278,1,houses/images/349.jpg,houses/images/1.jpg,279,Yang,001,2020-11-19_14h17.36.128,test2,2020.2.5,MacIntel,60
,,,,z,1.155,0,279,279,279,1,houses/images/35.jpg,houses/images/73.jpg,280,Yang,001,2020-11-19_14h17.36.128,test2,2020.2.5,MacIntel,60
,,,,m,0.724,0,280,280,280,1,houses/images/350.jpg,houses/images/44.jpg,281,Yang,001,2020-11-19_14h17.36.128,test2,2020.2.5,MacIntel,60
,,,,m,1.017,0,281,281,281,1,houses/images/351.jpg,houses/images/6.jpg,282,Yang,001,2020-11-19_14h17.36.128,test2,2020.2.5,MacIntel,60
,,,,m,0.825,0,282,282,282,1,houses/images/352.jpg,houses/images/20.jpg,283,Yang,001,2020-11-19_14h17.36.128,test2,2020.2.5,MacIntel,60
,,,,m,1.018,0,283,283,283,1,houses/images/353.jpg,houses/images/18.jpg,284,Yang,001,2020-11-19_14h17.36.128,test2,2020.2.5,MacIntel,60
,,,,z,1.37,0,284,284,284,1,houses/images/354.jpg,houses/images/347.jpg,285,Yang,001,2020-11-19_14h17.36.128,test2,2020.2.5,MacIntel,60
,,,,z,0.744,0,285,285,285,1,houses/images/355.jpg,houses/images/27.jpg,286,Yang,001,2020-11-19_14h17.36.128,test2,2020.2.5,MacIntel,60
,,,,z,0.757,0,286,286,286,1,houses/images/356.jpg,houses/images/276.jpg,287,Yang,001,2020-11-19_14h17.36.128,test2,2020.2.5,MacIntel,60
,,,,z,0.789,0,287,287,287,1,houses/images/357.jpg,houses/images/345.jpg,288,Yang,001,2020-11-19_14h17.36.128,test2,2020.2.5,MacIntel,60
,,,,z,0.61,0,288,288,288,1,houses/images/358.jpg,houses/images/235.jpg,289,Yang,001,2020-11-19_14h17.36.128,test2,2020.2.5,MacIntel,60
,,,,m,0.58,0,289,289,289,1,houses/images/359.jpg,houses/images/115.jpg,290,Yang,001,2020-11-19_14h17.36.128,test2,2020.2.5,MacIntel,60
,,,,z,0.759,0,290,290,290,1,houses/images/36.jpg,houses/images/310.jpg,291,Yang,001,2020-11-19_14h17.36.128,test2,2020.2.5,MacIntel,60
,,,,z,0.974,0,291,291,291,1,houses/images/360.jpg,houses/images/93.jpg,292,Yang,001,2020-11-19_14h17.36.128,test2,2020.2.5,MacIntel,60
,,,,z,0.842,0,292,292,292,1,houses/images/361.jpg,houses/images/212.jpg,293,Yang,001,2020-11-19_14h17.36.128,test2,2020.2.5,MacIntel,60
,,,,m,0.883,0,293,293,293,1,houses/images/62.jpg,houses/images/51.jpg,294,Yang,001,2020-11-19_14h17.36.128,test2,2020.2.5,MacIntel,60
,,,,z,1.035,0,294,294,294,1,houses/images/37.jpg,houses/images/108.jpg,295,Yang,001,2020-11-19_14h17.36.128,test2,2020.2.5,MacIntel,60
,,,,m,0.895,0,295,295,295,1,houses/images/38.jpg,houses/images/127.jpg,296,Yang,001,2020-11-19_14h17.36.128,test2,2020.2.5,MacIntel,60
,,,,m,1.272,0,296,296,296,1,houses/images/39.jpg,houses/images/52.jpg,297,Yang,001,2020-11-19_14h17.36.128,test2,2020.2.5,MacIntel,60
,,,,m,0.974,0,297,297,297,1,houses/images/4.jpg,houses/images/318.jpg,298,Yang,001,2020-11-19_14h17.36.128,test2,2020.2.5,MacIntel,60
,,,,m,0.876,0,298,298,298,1,houses/images/40.jpg,houses/images/201.jpg,299,Yang,001,2020-11-19_14h17.36.128,test2,2020.2.5,MacIntel,60
,,,,z,1.182,0,299,299,299,1,houses/images/41.jpg,houses/images/7.jpg,300,Yang,001,2020-11-19_14h17.36.128,test2,2020.2.5,MacIntel,60
,,,,z,0.672,0,300,300,300,1,houses/images/42.jpg,houses/images/340.jpg,301,Yang,001,2020-11-19_14h17.36.128,test2,2020.2.5,MacIntel,60
,,,,z,1.06,0,301,301,301,1,houses/images/43.jpg,houses/images/150.jpg,302,Yang,001,2020-11-19_14h17.36.128,test2,2020.2.5,MacIntel,60
,,,,z,0.992,0,302,302,302,1,houses/images/44.jpg,houses/images/246.jpg,303,Yang,001,2020-11-19_14h17.36.128,test2,2020.2.5,MacIntel,60
,,,,z,1.175,0,303,303,303,1,houses/images/145.jpg,houses/images/18.jpg,304,Yang,001,2020-11-19_14h17.36.128,test2,2020.2.5,MacIntel,60
,,,,m,0.855,0,304,304,304,1,houses/images/46.jpg,houses/images/211.jpg,305,Yang,001,2020-11-19_14h17.36.128,test2,2020.2.5,MacIntel,60
,,,,m,0.61,0,305,305,305,1,houses/images/47.jpg,houses/images/282.jpg,306,Yang,001,2020-11-19_14h17.36.128,test2,2020.2.5,MacIntel,60
,,,,z,0.731,0,306,306,306,1,houses/images/48.jpg,houses/images/145.jpg,307,Yang,001,2020-11-19_14h17.36.128,test2,2020.2.5,MacIntel,60
,,,,m,1.073,0,307,307,307,1,houses/images/49.jpg,houses/images/135.jpg,308,Yang,001,2020-11-19_14h17.36.128,test2,2020.2.5,MacIntel,60
,,,,m,1.235,0,308,308,308,1,houses/images/5.jpg,houses/images/59.jpg,309,Yang,001,2020-11-19_14h17.36.128,test2,2020.2.5,MacIntel,60
,,,,z,0.76,0,309,309,309,1,houses/images/50.jpg,houses/images/164.jpg,310,Yang,001,2020-11-19_14h17.36.128,test2,2020.2.5,MacIntel,60
,,,,z,1.125,0,310,310,310,1,houses/images/51.jpg,houses/images/42.jpg,311,Yang,001,2020-11-19_14h17.36.128,test2,2020.2.5,MacIntel,60
,,,,m,0.79,0,311,311,311,1,houses/images/52.jpg,houses/images/32.jpg,312,Yang,001,2020-11-19_14h17.36.128,test2,2020.2.5,MacIntel,60
,,,,m,1.084,0,312,312,312,1,houses/images/53.jpg,houses/images/357.jpg,313,Yang,001,2020-11-19_14h17.36.128,test2,2020.2.5,MacIntel,60
,,,,z,0.491,0,313,313,313,1,houses/images/54.jpg,houses/images/305.jpg,314,Yang,001,2020-11-19_14h17.36.128,test2,2020.2.5,MacIntel,60
,,,,m,0.744,0,314,314,314,1,houses/images/55.jpg,houses/images/352.jpg,315,Yang,001,2020-11-19_14h17.36.128,test2,2020.2.5,MacIntel,60
,,,,z,0.618,0,315,315,315,1,houses/images/56.jpg,houses/images/273.jpg,316,Yang,001,2020-11-19_14h17.36.128,test2,2020.2.5,MacIntel,60
,,,,m,0.578,0,316,316,316,1,houses/images/57.jpg,houses/images/143.jpg,317,Yang,001,2020-11-19_14h17.36.128,test2,2020.2.5,MacIntel,60
,,,,z,0.684,0,317,317,317,1,houses/images/58.jpg,houses/images/95.jpg,318,Yang,001,2020-11-19_14h17.36.128,test2,2020.2.5,MacIntel,60
,,,,m,0.708,0,318,318,318,1,houses/images/59.jpg,houses/images/244.jpg,319,Yang,001,2020-11-19_14h17.36.128,test2,2020.2.5,MacIntel,60
,,,,z,0.824,0,319,319,319,1,houses/images/6.jpg,houses/images/202.jpg,320,Yang,001,2020-11-19_14h17.36.128,test2,2020.2.5,MacIntel,60
,,,,m,0.743,0,320,320,320,1,houses/images/60.jpg,houses/images/203.jpg,321,Yang,001,2020-11-19_14h17.36.128,test2,2020.2.5,MacIntel,60
,,,,m,0.763,0,321,321,321,1,houses/images/61.jpg,houses/images/123.jpg,322,Yang,001,2020-11-19_14h17.36.128,test2,2020.2.5,MacIntel,60
,,,,m,0.942,0,322,322,322,1,houses/images/62.jpg,houses/images/353.jpg,323,Yang,001,2020-11-19_14h17.36.128,test2,2020.2.5,MacIntel,60
,,,,m,0.655,0,323,323,323,1,houses/images/63.jpg,houses/images/281.jpg,324,Yang,001,2020-11-19_14h17.36.128,test2,2020.2.5,MacIntel,60
,,,,m,1.046,0,324,324,324,1,houses/images/64.jpg,houses/images/280.jpg,325,Yang,001,2020-11-19_14h17.36.128,test2,2020.2.5,MacIntel,60
,,,,m,0.9,0,325,325,325,1,houses/images/65.jpg,houses/images/309.jpg,326,Yang,001,2020-11-19_14h17.36.128,test2,2020.2.5,MacIntel,60
,,,,m,1.01,0,326,326,326,1,houses/images/66.jpg,houses/images/302.jpg,327,Yang,001,2020-11-19_14h17.36.128,test2,2020.2.5,MacIntel,60
,,,,z,1.224,0,327,327,327,1,houses/images/67.jpg,houses/images/300.jpg,328,Yang,001,2020-11-19_14h17.36.128,test2,2020.2.5,MacIntel,60
,,,,z,0.774,0,328,328,328,1,houses/images/68.jpg,houses/images/328.jpg,329,Yang,001,2020-11-19_14h17.36.128,test2,2020.2.5,MacIntel,60
,,,,z,0.902,0,329,329,329,1,houses/images/69.jpg,houses/images/114.jpg,330,Yang,001,2020-11-19_14h17.36.128,test2,2020.2.5,MacIntel,60
,,,,z,0.792,0,330,330,330,1,houses/images/7.jpg,houses/images/31.jpg,331,Yang,001,2020-11-19_14h17.36.128,test2,2020.2.5,MacIntel,60
,,,,m,0.659,0,331,331,331,1,houses/images/70.jpg,houses/images/54.jpg,332,Yang,001,2020-11-19_14h17.36.128,test2,2020.2.5,MacIntel,60
,,,,z,0.908,0,332,332,332,1,houses/images/71.jpg,houses/images/293.jpg,333,Yang,001,2020-11-19_14h17.36.128,test2,2020.2.5,MacIntel,60
,,,,m,1.257,0,333,333,333,1,houses/images/72.jpg,houses/images/37.jpg,334,Yang,001,2020-11-19_14h17.36.128,test2,2020.2.5,MacIntel,60
,,,,m,1.124,0,334,334,334,1,houses/images/73.jpg,houses/images/230.jpg,335,Yang,001,2020-11-19_14h17.36.128,test2,2020.2.5,MacIntel,60
,,,,z,1.95,0,335,335,335,1,houses/images/74.jpg,houses/images/88.jpg,336,Yang,001,2020-11-19_14h17.36.128,test2,2020.2.5,MacIntel,60
,,,,m,0.978,0,336,336,336,1,houses/images/75.jpg,houses/images/161.jpg,337,Yang,001,2020-11-19_14h17.36.128,test2,2020.2.5,MacIntel,60
,,,,m,0.958,0,337,337,337,1,houses/images/76.jpg,houses/images/354.jpg,338,Yang,001,2020-11-19_14h17.36.128,test2,2020.2.5,MacIntel,60
,,,,z,0.946,0,338,338,338,1,houses/images/77.jpg,houses/images/251.jpg,339,Yang,001,2020-11-19_14h17.36.128,test2,2020.2.5,MacIntel,60
,,,,z,0.673,0,339,339,339,1,houses/images/78.jpg,houses/images/143.jpg,340,Yang,001,2020-11-19_14h17.36.128,test2,2020.2.5,MacIntel,60
,,,,z,0.963,0,340,340,340,1,houses/images/79.jpg,houses/images/335.jpg,341,Yang,001,2020-11-19_14h17.36.128,test2,2020.2.5,MacIntel,60
,,,,m,0.859,0,341,341,341,1,houses/images/8.jpg,houses/images/231.jpg,342,Yang,001,2020-11-19_14h17.36.128,test2,2020.2.5,MacIntel,60
,,,,z,0.827,0,342,342,342,1,houses/images/80.jpg,houses/images/69.jpg,343,Yang,001,2020-11-19_14h17.36.128,test2,2020.2.5,MacIntel,60
,,,,m,0.715,0,343,343,343,1,houses/images/81.jpg,houses/images/92.jpg,344,Yang,001,2020-11-19_14h17.36.128,test2,2020.2.5,MacIntel,60
,,,,z,0.688,0,344,344,344,1,houses/images/82.jpg,houses/images/221.jpg,345,Yang,001,2020-11-19_14h17.36.128,test2,2020.2.5,MacIntel,60
,,,,m,0.684,0,345,345,345,1,houses/images/83.jpg,houses/images/196.jpg,346,Yang,001,2020-11-19_14h17.36.128,test2,2020.2.5,MacIntel,60
,,,,z,0.99,0,346,346,346,1,houses/images/84.jpg,houses/images/53.jpg,347,Yang,001,2020-11-19_14h17.36.128,test2,2020.2.5,MacIntel,60
,,,,z,0.976,0,347,347,347,1,houses/images/85.jpg,houses/images/166.jpg,348,Yang,001,2020-11-19_14h17.36.128,test2,2020.2.5,MacIntel,60
,,,,m,1.008,0,348,348,348,1,houses/images/86.jpg,houses/images/266.jpg,349,Yang,001,2020-11-19_14h17.36.128,test2,2020.2.5,MacIntel,60
,,,,m,0.725,0,349,349,349,1,houses/images/87.jpg,houses/images/355.jpg,350,Yang,001,2020-11-19_14h17.36.128,test2,2020.2.5,MacIntel,60
,,,,z,0.861,0,350,350,350,1,houses/images/88.jpg,houses/images/206.jpg,351,Yang,001,2020-11-19_14h17.36.128,test2,2020.2.5,MacIntel,60
,,,,m,0.791,0,351,351,351,1,houses/images/89.jpg,houses/images/241.jpg,352,Yang,001,2020-11-19_14h17.36.128,test2,2020.2.5,MacIntel,60
,,,,z,0.637,0,352,352,352,1,houses/images/9.jpg,houses/images/147.jpg,353,Yang,001,2020-11-19_14h17.36.128,test2,2020.2.5,MacIntel,60
,,,,m,0.998,0,353,353,353,1,houses/images/90.jpg,houses/images/117.jpg,354,Yang,001,2020-11-19_14h17.36.128,test2,2020.2.5,MacIntel,60
,,,,m,1.258,0,354,354,354,1,houses/images/91.jpg,houses/images/34.jpg,355,Yang,001,2020-11-19_14h17.36.128,test2,2020.2.5,MacIntel,60
,,,,z,0.857,0,355,355,355,1,houses/images/92.jpg,houses/images/105.jpg,356,Yang,001,2020-11-19_14h17.36.128,test2,2020.2.5,MacIntel,60
,,,,z,0.907,0,356,356,356,1,houses/images/93.jpg,houses/images/249.jpg,357,Yang,001,2020-11-19_14h17.36.128,test2,2020.2.5,MacIntel,60
,,,,z,0.642,0,357,357,357,1,houses/images/94.jpg,houses/images/265.jpg,358,Yang,001,2020-11-19_14h17.36.128,test2,2020.2.5,MacIntel,60
,,,,z,0.892,0,358,358,358,1,houses/images/95.jpg,houses/images/65.jpg,359,Yang,001,2020-11-19_14h17.36.128,test2,2020.2.5,MacIntel,60
,,,,z,0.78,0,359,359,359,1,houses/images/96.jpg,houses/images/83.jpg,360,Yang,001,2020-11-19_14h17.36.128,test2,2020.2.5,MacIntel,60
,,,,z,0.742,0,360,360,360,1,houses/images/97.jpg,houses/images/165.jpg,361,Yang,001,2020-11-19_14h17.36.128,test2,2020.2.5,MacIntel,60
,,,,m,0.873,0,361,361,361,1,houses/images/98.jpg,houses/images/280.jpg,362,Yang,001,2020-11-19_14h17.36.128,test2,2020.2.5,MacIntel,60
,,,,m,0.84,0,362,362,362,1,houses/images/199.jpg,houses/images/278.jpg,363,Yang,001,2020-11-19_14h17.36.128,test2,2020.2.5,MacIntel,60
,,,,m,0.876,0,363,363,363,1,houses/images/0.jpg,houses/images/297.jpg,364,Yang,001,2020-11-19_14h17.36.128,test2,2020.2.5,MacIntel,60
,,,,z,0.262,0,364,364,364,1,houses/images/1.jpg,houses/images/225.jpg,365,Yang,001,2020-11-19_14h17.36.128,test2,2020.2.5,MacIntel,60
,,,,m,0.924,0,365,365,365,1,houses/images/10.jpg,houses/images/41.jpg,366,Yang,001,2020-11-19_14h17.36.128,test2,2020.2.5,MacIntel,60
,,,,m,1.161,0,366,366,366,1,houses/images/100.jpg,houses/images/19.jpg,367,Yang,001,2020-11-19_14h17.36.128,test2,2020.2.5,MacIntel,60
,,,,z,1.247,0,367,367,367,1,houses/images/101.jpg,houses/images/189.jpg,368,Yang,001,2020-11-19_14h17.36.128,test2,2020.2.5,MacIntel,60
,,,,m,0.891,0,368,368,368,1,houses/images/102.jpg,houses/images/141.jpg,369,Yang,001,2020-11-19_14h17.36.128,test2,2020.2.5,MacIntel,60
,,,,z,1.073,0,369,369,369,1,houses/images/103.jpg,houses/images/212.jpg,370,Yang,001,2020-11-19_14h17.36.128,test2,2020.2.5,MacIntel,60
,,,,z,1.057,0,370,370,370,1,houses/images/104.jpg,houses/images/134.jpg,371,Yang,001,2020-11-19_14h17.36.128,test2,2020.2.5,MacIntel,60
,,,,m,0.726,0,371,371,371,1,houses/images/105.jpg,houses/images/13.jpg,372,Yang,001,2020-11-19_14h17.36.128,test2,2020.2.5,MacIntel,60
,,,,m,1.042,0,372,372,372,1,houses/images/106.jpg,houses/images/258.jpg,373,Yang,001,2020-11-19_14h17.36.128,test2,2020.2.5,MacIntel,60
,,,,z,1.01,0,373,373,373,1,houses/images/107.jpg,houses/images/14.jpg,374,Yang,001,2020-11-19_14h17.36.128,test2,2020.2.5,MacIntel,60
,,,,m,1.224,0,374,374,374,1,houses/images/108.jpg,houses/images/9.jpg,375,Yang,001,2020-11-19_14h17.36.128,test2,2020.2.5,MacIntel,60
,,,,z,0.94,0,375,375,375,1,houses/images/109.jpg,houses/images/106.jpg,376,Yang,001,2020-11-19_14h17.36.128,test2,2020.2.5,MacIntel,60
,,,,m,0.709,0,376,376,376,1,houses/images/11.jpg,houses/images/268.jpg,377,Yang,001,2020-11-19_14h17.36.128,test2,2020.2.5,MacIntel,60
,,,,m,0.924,0,377,377,377,1,houses/images/210.jpg,houses/images/330.jpg,378,Yang,001,2020-11-19_14h17.36.128,test2,2020.2.5,MacIntel,60
,,,,m,1.309,0,378,378,378,1,houses/images/111.jpg,houses/images/343.jpg,379,Yang,001,2020-11-19_14h17.36.128,test2,2020.2.5,MacIntel,60
,,,,m,0.977,0,379,379,379,1,houses/images/112.jpg,houses/images/225.jpg,380,Yang,001,2020-11-19_14h17.36.128,test2,2020.2.5,MacIntel,60
,,,,m,0.89,0,380,380,380,1,houses/images/113.jpg,houses/images/174.jpg,381,Yang,001,2020-11-19_14h17.36.128,test2,2020.2.5,MacIntel,60
,,,,m,1.358,0,381,381,381,1,houses/images/114.jpg,houses/images/25.jpg,382,Yang,001,2020-11-19_14h17.36.128,test2,2020.2.5,MacIntel,60
,,,,z,0.877,0,382,382,382,1,houses/images/115.jpg,houses/images/100.jpg,383,Yang,001,2020-11-19_14h17.36.128,test2,2020.2.5,MacIntel,60
,,,,z,1.775,0,383,383,383,1,houses/images/116.jpg,houses/images/48.jpg,384,Yang,001,2020-11-19_14h17.36.128,test2,2020.2.5,MacIntel,60
,,,,m,0.865,0,384,384,384,1,houses/images/117.jpg,houses/images/296.jpg,385,Yang,001,2020-11-19_14h17.36.128,test2,2020.2.5,MacIntel,60
,,,,m,1.022,0,385,385,385,1,houses/images/118.jpg,houses/images/15.jpg,386,Yang,001,2020-11-19_14h17.36.128,test2,2020.2.5,MacIntel,60
,,,,m,0.796,0,386,386,386,1,houses/images/119.jpg,houses/images/252.jpg,387,Yang,001,2020-11-19_14h17.36.128,test2,2020.2.5,MacIntel,60
,,,,z,1.309,0,387,387,387,1,houses/images/12.jpg,houses/images/290.jpg,388,Yang,001,2020-11-19_14h17.36.128,test2,2020.2.5,MacIntel,60
,,,,z,1.19,0,388,388,388,1,houses/images/120.jpg,houses/images/236.jpg,389,Yang,001,2020-11-19_14h17.36.128,test2,2020.2.5,MacIntel,60
,,,,z,0.76,0,389,389,389,1,houses/images/121.jpg,houses/images/260.jpg,390,Yang,001,2020-11-19_14h17.36.128,test2,2020.2.5,MacIntel,60
,,,,z,1.108,0,390,390,390,1,houses/images/122.jpg,houses/images/56.jpg,391,Yang,001,2020-11-19_14h17.36.128,test2,2020.2.5,MacIntel,60
,,,,m,1.788,0,391,391,391,1,houses/images/123.jpg,houses/images/336.jpg,392,Yang,001,2020-11-19_14h17.36.128,test2,2020.2.5,MacIntel,60
,,,,z,2.974,0,392,392,392,1,houses/images/124.jpg,houses/images/39.jpg,393,Yang,001,2020-11-19_14h17.36.128,test2,2020.2.5,MacIntel,60
,,,,z,0.764,0,393,393,393,1,houses/images/225.jpg,houses/images/302.jpg,394,Yang,001,2020-11-19_14h17.36.128,test2,2020.2.5,MacIntel,60
,,,,m,1.898,0,394,394,394,1,houses/images/226.jpg,houses/images/207.jpg,395,Yang,001,2020-11-19_14h17.36.128,test2,2020.2.5,MacIntel,60
,,,,z,0.723,0,395,395,395,1,houses/images/127.jpg,houses/images/348.jpg,396,Yang,001,2020-11-19_14h17.36.128,test2,2020.2.5,MacIntel,60
,,,,z,1.672,0,396,396,396,1,houses/images/128.jpg,houses/images/151.jpg,397,Yang,001,2020-11-19_14h17.36.128,test2,2020.2.5,MacIntel,60
,,,,m,1.023,0,397,397,397,1,houses/images/129.jpg,houses/images/315.jpg,398,Yang,001,2020-11-19_14h17.36.128,test2,2020.2.5,MacIntel,60
,,,,m,0.91,0,398,398,398,1,houses/images/13.jpg,houses/images/63.jpg,399,Yang,001,2020-11-19_14h17.36.128,test2,2020.2.5,MacIntel,60
,,,,m,0.809,0,399,399,399,1,houses/images/307.jpg,houses/images/172.jpg,400,Yang,001,2020-11-19_14h17.36.128,test2,2020.2.5,MacIntel,60
