key_resp.keys,key_resp.rt,key_resp_3.keys,key_resp_3.rt,key_resp_2.keys,key_resp_2.rt,trials.thisRepN,trials.thisTrialN,trials.thisN,trials.thisIndex,trials.ran,image_left,image_right,trial_num,participant,session,date,expName,psychopyVersion,OS,frameRate,key_resp_4.keys,key_resp_4.rt,trials_2.thisRepN,trials_2.thisTrialN,trials_2.thisN,trials_2.thisIndex,trials_2.ran
space,11.45277,space,15.989895,m,3.73784,0,0,0,0,1,houses/images/0.jpg,houses/images/349.jpg,1,YF,001,2020-11-24_00h08.21.784,test2,2020.2.5,MacIntel,60,,,,,,,
,,,,z,4.258215,0,1,1,1,1,houses/images/1.jpg,houses/images/194.jpg,2,YF,001,2020-11-24_00h08.21.784,test2,2020.2.5,MacIntel,60,,,,,,,
,,,,z,1.55144,0,2,2,2,1,houses/images/10.jpg,houses/images/159.jpg,3,YF,001,2020-11-24_00h08.21.784,test2,2020.2.5,MacIntel,60,,,,,,,
,,,,m,1.98607,0,3,3,3,1,houses/images/100.jpg,houses/images/42.jpg,4,YF,001,2020-11-24_00h08.21.784,test2,2020.2.5,MacIntel,60,,,,,,,
,,,,m,1.837555,0,4,4,4,1,houses/images/101.jpg,houses/images/240.jpg,5,YF,001,2020-11-24_00h08.21.784,test2,2020.2.5,MacIntel,60,,,,,,,
,,,,z,3.876385,0,5,5,5,1,houses/images/102.jpg,houses/images/201.jpg,6,YF,001,2020-11-24_00h08.21.784,test2,2020.2.5,MacIntel,60,,,,,,,
,,,,m,3.854635,0,6,6,6,1,houses/images/103.jpg,houses/images/223.jpg,7,YF,001,2020-11-24_00h08.21.784,test2,2020.2.5,MacIntel,60,,,,,,,
,,,,z,7.30685,0,7,7,7,1,houses/images/104.jpg,houses/images/46.jpg,8,YF,001,2020-11-24_00h08.21.784,test2,2020.2.5,MacIntel,60,,,,,,,
,,,,z,5.42511,0,8,8,8,1,houses/images/105.jpg,houses/images/109.jpg,9,YF,001,2020-11-24_00h08.21.784,test2,2020.2.5,MacIntel,60,,,,,,,
,,,,m,13.418695,0,9,9,9,1,houses/images/106.jpg,houses/images/12.jpg,10,YF,001,2020-11-24_00h08.21.784,test2,2020.2.5,MacIntel,60,,,,,,,
,,,,m,1.986695,0,10,10,10,1,houses/images/107.jpg,houses/images/358.jpg,11,YF,001,2020-11-24_00h08.21.784,test2,2020.2.5,MacIntel,60,,,,,,,
,,,,m,2.37492,0,11,11,11,1,houses/images/108.jpg,houses/images/197.jpg,12,YF,001,2020-11-24_00h08.21.784,test2,2020.2.5,MacIntel,60,,,,,,,
,,,,z,2.036315,0,12,12,12,1,houses/images/109.jpg,houses/images/133.jpg,13,YF,001,2020-11-24_00h08.21.784,test2,2020.2.5,MacIntel,60,,,,,,,
,,,,z,4.203335,0,13,13,13,1,houses/images/11.jpg,houses/images/286.jpg,14,YF,001,2020-11-24_00h08.21.784,test2,2020.2.5,MacIntel,60,,,,,,,
,,,,z,3.656015,0,14,14,14,1,houses/images/210.jpg,houses/images/33.jpg,15,YF,001,2020-11-24_00h08.21.784,test2,2020.2.5,MacIntel,60,,,,,,,
,,,,m,4.27492,0,15,15,15,1,houses/images/111.jpg,houses/images/156.jpg,16,YF,001,2020-11-24_00h08.21.784,test2,2020.2.5,MacIntel,60,,,,,,,
,,,,m,7.3397,0,16,16,16,1,houses/images/112.jpg,houses/images/128.jpg,17,YF,001,2020-11-24_00h08.21.784,test2,2020.2.5,MacIntel,60,,,,,,,
,,,,m,2.802625,0,17,17,17,1,houses/images/113.jpg,houses/images/306.jpg,18,YF,001,2020-11-24_00h08.21.784,test2,2020.2.5,MacIntel,60,,,,,,,
,,,,m,8.028085,0,18,18,18,1,houses/images/114.jpg,houses/images/272.jpg,19,YF,001,2020-11-24_00h08.21.784,test2,2020.2.5,MacIntel,60,,,,,,,
,,,,z,8.975115,0,19,19,19,1,houses/images/115.jpg,houses/images/112.jpg,20,YF,001,2020-11-24_00h08.21.784,test2,2020.2.5,MacIntel,60,,,,,,,
,,,,z,2.05215,0,20,20,20,1,houses/images/116.jpg,houses/images/101.jpg,21,YF,001,2020-11-24_00h08.21.784,test2,2020.2.5,MacIntel,60,,,,,,,
,,,,m,4.07108,0,21,21,21,1,houses/images/117.jpg,houses/images/298.jpg,22,YF,001,2020-11-24_00h08.21.784,test2,2020.2.5,MacIntel,60,,,,,,,
,,,,z,4.97286,0,22,22,22,1,houses/images/118.jpg,houses/images/80.jpg,23,YF,001,2020-11-24_00h08.21.784,test2,2020.2.5,MacIntel,60,,,,,,,
,,,,m,6.422295,0,23,23,23,1,houses/images/119.jpg,houses/images/329.jpg,24,YF,001,2020-11-24_00h08.21.784,test2,2020.2.5,MacIntel,60,,,,,,,
,,,,m,3.354985,0,24,24,24,1,houses/images/12.jpg,houses/images/320.jpg,25,YF,001,2020-11-24_00h08.21.784,test2,2020.2.5,MacIntel,60,,,,,,,
,,,,z,4.427935,0,25,25,25,1,houses/images/120.jpg,houses/images/24.jpg,26,YF,001,2020-11-24_00h08.21.784,test2,2020.2.5,MacIntel,60,,,,,,,
,,,,m,5.388465,0,26,26,26,1,houses/images/121.jpg,houses/images/341.jpg,27,YF,001,2020-11-24_00h08.21.784,test2,2020.2.5,MacIntel,60,,,,,,,
,,,,z,4.003585,0,27,27,27,1,houses/images/122.jpg,houses/images/38.jpg,28,YF,001,2020-11-24_00h08.21.784,test2,2020.2.5,MacIntel,60,,,,,,,
,,,,m,5.222355,0,28,28,28,1,houses/images/123.jpg,houses/images/98.jpg,29,YF,001,2020-11-24_00h08.21.784,test2,2020.2.5,MacIntel,60,,,,,,,
,,,,z,13.27854,0,29,29,29,1,houses/images/124.jpg,houses/images/213.jpg,30,YF,001,2020-11-24_00h08.21.784,test2,2020.2.5,MacIntel,60,,,,,,,
,,,,z,14.912645,0,30,30,30,1,houses/images/225.jpg,houses/images/208.jpg,31,YF,001,2020-11-24_00h08.21.784,test2,2020.2.5,MacIntel,60,,,,,,,
,,,,z,4.21991,0,31,31,31,1,houses/images/226.jpg,houses/images/210.jpg,32,YF,001,2020-11-24_00h08.21.784,test2,2020.2.5,MacIntel,60,,,,,,,
,,,,z,1.71824,0,32,32,32,1,houses/images/127.jpg,houses/images/90.jpg,33,YF,001,2020-11-24_00h08.21.784,test2,2020.2.5,MacIntel,60,,,,,,,
,,,,z,1.38538,0,33,33,33,1,houses/images/128.jpg,houses/images/113.jpg,34,YF,001,2020-11-24_00h08.21.784,test2,2020.2.5,MacIntel,60,,,,,,,
,,,,m,2.986735,0,34,34,34,1,houses/images/129.jpg,houses/images/232.jpg,35,YF,001,2020-11-24_00h08.21.784,test2,2020.2.5,MacIntel,60,,,,,,,
,,,,m,3.74333,0,35,35,35,1,houses/images/13.jpg,houses/images/359.jpg,36,YF,001,2020-11-24_00h08.21.784,test2,2020.2.5,MacIntel,60,,,,,,,
,,,,z,1.98573,0,36,36,36,1,houses/images/130.jpg,houses/images/187.jpg,37,YF,001,2020-11-24_00h08.21.784,test2,2020.2.5,MacIntel,60,,,,,,,
,,,,z,4.187075,0,37,37,37,1,houses/images/131.jpg,houses/images/275.jpg,38,YF,001,2020-11-24_00h08.21.784,test2,2020.2.5,MacIntel,60,,,,,,,
,,,,m,3.092245,0,38,38,38,1,houses/images/132.jpg,houses/images/162.jpg,39,YF,001,2020-11-24_00h08.21.784,test2,2020.2.5,MacIntel,60,,,,,,,
,,,,m,1.639815,0,39,39,39,1,houses/images/133.jpg,houses/images/311.jpg,40,YF,001,2020-11-24_00h08.21.784,test2,2020.2.5,MacIntel,60,,,,,,,
,,,,z,3.623315,0,40,40,40,1,houses/images/134.jpg,houses/images/277.jpg,41,YF,001,2020-11-24_00h08.21.784,test2,2020.2.5,MacIntel,60,,,,,,,
,,,,z,3.2097,0,41,41,41,1,houses/images/135.jpg,houses/images/71.jpg,42,YF,001,2020-11-24_00h08.21.784,test2,2020.2.5,MacIntel,60,,,,,,,
,,,,m,7.18916,0,42,42,42,1,houses/images/236.jpg,houses/images/72.jpg,43,YF,001,2020-11-24_00h08.21.784,test2,2020.2.5,MacIntel,60,,,,,,,
,,,,z,2.86916,0,43,43,43,1,houses/images/137.jpg,houses/images/246.jpg,44,YF,001,2020-11-24_00h08.21.784,test2,2020.2.5,MacIntel,60,,,,,,,
,,,,m,4.790015,0,44,44,44,1,houses/images/138.jpg,houses/images/174.jpg,45,YF,001,2020-11-24_00h08.21.784,test2,2020.2.5,MacIntel,60,,,,,,,
,,,,m,2.001575,0,45,45,45,1,houses/images/239.jpg,houses/images/292.jpg,46,YF,001,2020-11-24_00h08.21.784,test2,2020.2.5,MacIntel,60,,,,,,,
,,,,m,4.42078,0,46,46,46,1,houses/images/14.jpg,houses/images/194.jpg,47,YF,001,2020-11-24_00h08.21.784,test2,2020.2.5,MacIntel,60,,,,,,,
,,,,z,1.40824,0,47,47,47,1,houses/images/240.jpg,houses/images/180.jpg,48,YF,001,2020-11-24_00h08.21.784,test2,2020.2.5,MacIntel,60,,,,,,,
,,,,m,2.00223,0,48,48,48,1,houses/images/141.jpg,houses/images/262.jpg,49,YF,001,2020-11-24_00h08.21.784,test2,2020.2.5,MacIntel,60,,,,,,,
,,,,z,4.27058,0,49,49,49,1,houses/images/42.jpg,houses/images/118.jpg,50,YF,001,2020-11-24_00h08.21.784,test2,2020.2.5,MacIntel,60,,,,,,,
,,,,m,2.352715,0,50,50,50,1,houses/images/143.jpg,houses/images/316.jpg,51,YF,001,2020-11-24_00h08.21.784,test2,2020.2.5,MacIntel,60,,,,,,,
,,,,z,2.80357,0,51,51,51,1,houses/images/144.jpg,houses/images/29.jpg,52,YF,001,2020-11-24_00h08.21.784,test2,2020.2.5,MacIntel,60,,,,,,,
,,,,m,5.77239,0,52,52,52,1,houses/images/145.jpg,houses/images/146.jpg,53,YF,001,2020-11-24_00h08.21.784,test2,2020.2.5,MacIntel,60,,,,,,,
,,,,z,2.15975,0,53,53,53,1,houses/images/146.jpg,houses/images/342.jpg,54,YF,001,2020-11-24_00h08.21.784,test2,2020.2.5,MacIntel,60,,,,,,,
,,,,m,2.52454,0,54,54,54,1,houses/images/147.jpg,houses/images/120.jpg,55,YF,001,2020-11-24_00h08.21.784,test2,2020.2.5,MacIntel,60,,,,,,,
,,,,z,3.50337,0,55,55,55,1,houses/images/148.jpg,houses/images/204.jpg,56,YF,001,2020-11-24_00h08.21.784,test2,2020.2.5,MacIntel,60,,,,,,,
,,,,z,3.788215,0,56,56,56,1,houses/images/149.jpg,houses/images/292.jpg,57,YF,001,2020-11-24_00h08.21.784,test2,2020.2.5,MacIntel,60,,,,,,,
,,,,m,1.398305,0,57,57,57,1,houses/images/15.jpg,houses/images/191.jpg,58,YF,001,2020-11-24_00h08.21.784,test2,2020.2.5,MacIntel,60,,,,,,,
,,,,m,8.91105,0,58,58,58,1,houses/images/150.jpg,houses/images/318.jpg,59,YF,001,2020-11-24_00h08.21.784,test2,2020.2.5,MacIntel,60,,,,,,,
,,,,m,4.938375,0,59,59,59,1,houses/images/151.jpg,houses/images/255.jpg,60,YF,001,2020-11-24_00h08.21.784,test2,2020.2.5,MacIntel,60,,,,,,,
,,,,z,1.58673,0,60,60,60,1,houses/images/152.jpg,houses/images/261.jpg,61,YF,001,2020-11-24_00h08.21.784,test2,2020.2.5,MacIntel,60,,,,,,,
,,,,m,2.85208,0,61,61,61,1,houses/images/253.jpg,houses/images/129.jpg,62,YF,001,2020-11-24_00h08.21.784,test2,2020.2.5,MacIntel,60,,,,,,,
,,,,m,4.054025,0,62,62,62,1,houses/images/154.jpg,houses/images/36.jpg,63,YF,001,2020-11-24_00h08.21.784,test2,2020.2.5,MacIntel,60,,,,,,,
,,,,m,2.72302,0,63,63,63,1,houses/images/155.jpg,houses/images/210.jpg,64,YF,001,2020-11-24_00h08.21.784,test2,2020.2.5,MacIntel,60,,,,,,,
,,,,z,4.704395,0,64,64,64,1,houses/images/156.jpg,houses/images/132.jpg,65,YF,001,2020-11-24_00h08.21.784,test2,2020.2.5,MacIntel,60,,,,,,,
,,,,z,3.592305,0,65,65,65,1,houses/images/157.jpg,houses/images/70.jpg,66,YF,001,2020-11-24_00h08.21.784,test2,2020.2.5,MacIntel,60,,,,,,,
,,,,z,5.27161,0,66,66,66,1,houses/images/158.jpg,houses/images/199.jpg,67,YF,001,2020-11-24_00h08.21.784,test2,2020.2.5,MacIntel,60,,,,,,,
,,,,m,1.32526,0,67,67,67,1,houses/images/159.jpg,houses/images/226.jpg,68,YF,001,2020-11-24_00h08.21.784,test2,2020.2.5,MacIntel,60,,,,,,,
,,,,m,3.892165,0,68,68,68,1,houses/images/16.jpg,houses/images/50.jpg,69,YF,001,2020-11-24_00h08.21.784,test2,2020.2.5,MacIntel,60,,,,,,,
,,,,z,2.570975,0,69,69,69,1,houses/images/160.jpg,houses/images/239.jpg,70,YF,001,2020-11-24_00h08.21.784,test2,2020.2.5,MacIntel,60,,,,,,,
,,,,z,1.48445,0,70,70,70,1,houses/images/161.jpg,houses/images/289.jpg,71,YF,001,2020-11-24_00h08.21.784,test2,2020.2.5,MacIntel,60,,,,,,,
,,,,m,5.62681,0,71,71,71,1,houses/images/162.jpg,houses/images/325.jpg,72,YF,001,2020-11-24_00h08.21.784,test2,2020.2.5,MacIntel,60,,,,,,,
,,,,z,6.591375,0,72,72,72,1,houses/images/163.jpg,houses/images/259.jpg,73,YF,001,2020-11-24_00h08.21.784,test2,2020.2.5,MacIntel,60,,,,,,,
,,,,m,2.574025,0,73,73,73,1,houses/images/164.jpg,houses/images/316.jpg,74,YF,001,2020-11-24_00h08.21.784,test2,2020.2.5,MacIntel,60,,,,,,,
,,,,m,4.537325,0,74,74,74,1,houses/images/165.jpg,houses/images/311.jpg,75,YF,001,2020-11-24_00h08.21.784,test2,2020.2.5,MacIntel,60,,,,,,,
,,,,m,6.55566,0,75,75,75,1,houses/images/166.jpg,houses/images/246.jpg,76,YF,001,2020-11-24_00h08.21.784,test2,2020.2.5,MacIntel,60,,,,,,,
,,,,m,1.604175,0,76,76,76,1,houses/images/167.jpg,houses/images/269.jpg,77,YF,001,2020-11-24_00h08.21.784,test2,2020.2.5,MacIntel,60,,,,,,,
,,,,m,2.118905,0,77,77,77,1,houses/images/168.jpg,houses/images/360.jpg,78,YF,001,2020-11-24_00h08.21.784,test2,2020.2.5,MacIntel,60,,,,,,,
,,,,z,2.00263,0,78,78,78,1,houses/images/169.jpg,houses/images/116.jpg,79,YF,001,2020-11-24_00h08.21.784,test2,2020.2.5,MacIntel,60,,,,,,,
,,,,z,2.40841,0,79,79,79,1,houses/images/17.jpg,houses/images/245.jpg,80,YF,001,2020-11-24_00h08.21.784,test2,2020.2.5,MacIntel,60,,,,,,,
,,,,m,1.70199,0,80,80,80,1,houses/images/170.jpg,houses/images/152.jpg,81,YF,001,2020-11-24_00h08.21.784,test2,2020.2.5,MacIntel,60,,,,,,,
,,,,m,7.026565,0,81,81,81,1,houses/images/171.jpg,houses/images/77.jpg,82,YF,001,2020-11-24_00h08.21.784,test2,2020.2.5,MacIntel,60,,,,,,,
,,,,z,2.42534,0,82,82,82,1,houses/images/172.jpg,houses/images/154.jpg,83,YF,001,2020-11-24_00h08.21.784,test2,2020.2.5,MacIntel,60,,,,,,,
,,,,m,1.593945,0,83,83,83,1,houses/images/273.jpg,houses/images/210.jpg,84,YF,001,2020-11-24_00h08.21.784,test2,2020.2.5,MacIntel,60,,,,,,,
,,,,z,2.13618,0,84,84,84,1,houses/images/174.jpg,houses/images/121.jpg,85,YF,001,2020-11-24_00h08.21.784,test2,2020.2.5,MacIntel,60,,,,,,,
,,,,z,2.1187,0,85,85,85,1,houses/images/175.jpg,houses/images/47.jpg,86,YF,001,2020-11-24_00h08.21.784,test2,2020.2.5,MacIntel,60,,,,,,,
,,,,m,4.392165,0,86,86,86,1,houses/images/176.jpg,houses/images/328.jpg,87,YF,001,2020-11-24_00h08.21.784,test2,2020.2.5,MacIntel,60,,,,,,,
,,,,m,2.1208,0,87,87,87,1,houses/images/177.jpg,houses/images/35.jpg,88,YF,001,2020-11-24_00h08.21.784,test2,2020.2.5,MacIntel,60,,,,,,,
,,,,z,6.256405,0,88,88,88,1,houses/images/178.jpg,houses/images/299.jpg,89,YF,001,2020-11-24_00h08.21.784,test2,2020.2.5,MacIntel,60,,,,,,,
,,,,z,8.24069,0,89,89,89,1,houses/images/179.jpg,houses/images/283.jpg,90,YF,001,2020-11-24_00h08.21.784,test2,2020.2.5,MacIntel,60,,,,,,,
,,,,m,4.33816,0,90,90,90,1,houses/images/18.jpg,houses/images/182.jpg,91,YF,001,2020-11-24_00h08.21.784,test2,2020.2.5,MacIntel,60,,,,,,,
,,,,z,3.90882,0,91,91,91,1,houses/images/180.jpg,houses/images/327.jpg,92,YF,001,2020-11-24_00h08.21.784,test2,2020.2.5,MacIntel,60,,,,,,,
,,,,z,1.74034,0,92,92,92,1,houses/images/281.jpg,houses/images/334.jpg,93,YF,001,2020-11-24_00h08.21.784,test2,2020.2.5,MacIntel,60,,,,,,,
,,,,m,3.5082,0,93,93,93,1,houses/images/182.jpg,houses/images/75.jpg,94,YF,001,2020-11-24_00h08.21.784,test2,2020.2.5,MacIntel,60,,,,,,,
,,,,m,1.421785,0,94,94,94,1,houses/images/183.jpg,houses/images/137.jpg,95,YF,001,2020-11-24_00h08.21.784,test2,2020.2.5,MacIntel,60,,,,,,,
,,,,m,2.053575,0,95,95,95,1,houses/images/184.jpg,houses/images/344.jpg,96,YF,001,2020-11-24_00h08.21.784,test2,2020.2.5,MacIntel,60,,,,,,,
,,,,z,4.00391,0,96,96,96,1,houses/images/185.jpg,houses/images/285.jpg,97,YF,001,2020-11-24_00h08.21.784,test2,2020.2.5,MacIntel,60,,,,,,,
,,,,m,1.90296,0,97,97,97,1,houses/images/186.jpg,houses/images/230.jpg,98,YF,001,2020-11-24_00h08.21.784,test2,2020.2.5,MacIntel,60,,,,,,,
,,,,m,3.16968,0,98,98,98,1,houses/images/187.jpg,houses/images/3.jpg,99,YF,001,2020-11-24_00h08.21.784,test2,2020.2.5,MacIntel,60,,,,,,,
,,,,m,5.23863,0,99,99,99,1,houses/images/188.jpg,houses/images/304.jpg,100,YF,001,2020-11-24_00h08.21.784,test2,2020.2.5,MacIntel,60,,,,,,,
,,,,m,1.81812,0,100,100,100,1,houses/images/189.jpg,houses/images/17.jpg,101,YF,001,2020-11-24_00h08.21.784,test2,2020.2.5,MacIntel,60,,,,,,,
,,,,m,5.972795,0,101,101,101,1,houses/images/19.jpg,houses/images/351.jpg,102,YF,001,2020-11-24_00h08.21.784,test2,2020.2.5,MacIntel,60,,,,,,,
,,,,m,5.70999,0,102,102,102,1,houses/images/190.jpg,houses/images/307.jpg,103,YF,001,2020-11-24_00h08.21.784,test2,2020.2.5,MacIntel,60,,,,,,,
,,,,z,4.08722,0,103,103,103,1,houses/images/191.jpg,houses/images/326.jpg,104,YF,001,2020-11-24_00h08.21.784,test2,2020.2.5,MacIntel,60,,,,,,,
,,,,m,1.343295,0,104,104,104,1,houses/images/292.jpg,houses/images/240.jpg,105,YF,001,2020-11-24_00h08.21.784,test2,2020.2.5,MacIntel,60,,,,,,,
,,,,m,5.3213,0,105,105,105,1,houses/images/193.jpg,houses/images/243.jpg,106,YF,001,2020-11-24_00h08.21.784,test2,2020.2.5,MacIntel,60,,,,,,,
,,,,m,2.90805,0,106,106,106,1,houses/images/194.jpg,houses/images/291.jpg,107,YF,001,2020-11-24_00h08.21.784,test2,2020.2.5,MacIntel,60,,,,,,,
,,,,m,1.56772,0,107,107,107,1,houses/images/195.jpg,houses/images/361.jpg,108,YF,001,2020-11-24_00h08.21.784,test2,2020.2.5,MacIntel,60,,,,,,,
,,,,z,1.885815,0,108,108,108,1,houses/images/196.jpg,houses/images/30.jpg,109,YF,001,2020-11-24_00h08.21.784,test2,2020.2.5,MacIntel,60,,,,,,,
,,,,z,2.459515,0,109,109,109,1,houses/images/197.jpg,houses/images/22.jpg,110,YF,001,2020-11-24_00h08.21.784,test2,2020.2.5,MacIntel,60,,,,,,,
,,,,z,3.324295,0,110,110,110,1,houses/images/198.jpg,houses/images/250.jpg,111,YF,001,2020-11-24_00h08.21.784,test2,2020.2.5,MacIntel,60,,,,,,,
,,,,m,1.118915,0,111,111,111,1,houses/images/199.jpg,houses/images/323.jpg,112,YF,001,2020-11-24_00h08.21.784,test2,2020.2.5,MacIntel,60,,,,,,,
,,,,z,6.111815,0,112,112,112,1,houses/images/2.jpg,houses/images/187.jpg,113,YF,001,2020-11-24_00h08.21.784,test2,2020.2.5,MacIntel,60,,,,,,,
,,,,z,2.606285,0,113,113,113,1,houses/images/20.jpg,houses/images/100.jpg,114,YF,001,2020-11-24_00h08.21.784,test2,2020.2.5,MacIntel,60,,,,,,,
,,,,z,7.995115,0,114,114,114,1,houses/images/200.jpg,houses/images/238.jpg,115,YF,001,2020-11-24_00h08.21.784,test2,2020.2.5,MacIntel,60,,,,,,,
,,,,m,6.644865,0,115,115,115,1,houses/images/201.jpg,houses/images/58.jpg,116,YF,001,2020-11-24_00h08.21.784,test2,2020.2.5,MacIntel,60,,,,,,,
,,,,m,11.008915,0,116,116,116,1,houses/images/202.jpg,houses/images/205.jpg,117,YF,001,2020-11-24_00h08.21.784,test2,2020.2.5,MacIntel,60,,,,,,,
,,,,z,1.754425,0,117,117,117,1,houses/images/203.jpg,houses/images/40.jpg,118,YF,001,2020-11-24_00h08.21.784,test2,2020.2.5,MacIntel,60,,,,,,,
,,,,z,11.546255,0,118,118,118,1,houses/images/204.jpg,houses/images/64.jpg,119,YF,001,2020-11-24_00h08.21.784,test2,2020.2.5,MacIntel,60,,,,,,,
,,,,z,2.27071,0,119,119,119,1,houses/images/205.jpg,houses/images/155.jpg,120,YF,001,2020-11-24_00h08.21.784,test2,2020.2.5,MacIntel,60,,,,,,,
,,,,z,4.628885,0,120,120,120,1,houses/images/206.jpg,houses/images/199.jpg,121,YF,001,2020-11-24_00h08.21.784,test2,2020.2.5,MacIntel,60,,,,,,,
,,,,m,2.970135,0,121,121,121,1,houses/images/207.jpg,houses/images/233.jpg,122,YF,001,2020-11-24_00h08.21.784,test2,2020.2.5,MacIntel,60,,,,,,,
,,,,z,1.487485,0,122,122,122,1,houses/images/208.jpg,houses/images/8.jpg,123,YF,001,2020-11-24_00h08.21.784,test2,2020.2.5,MacIntel,60,,,,,,,
,,,,z,2.037,0,123,123,123,1,houses/images/209.jpg,houses/images/167.jpg,124,YF,001,2020-11-24_00h08.21.784,test2,2020.2.5,MacIntel,60,,,,,,,
,,,,z,3.103435,0,124,124,124,1,houses/images/21.jpg,houses/images/103.jpg,125,YF,001,2020-11-24_00h08.21.784,test2,2020.2.5,MacIntel,60,,,,,,,
,,,,z,2.54708,0,125,125,125,1,houses/images/210.jpg,houses/images/104.jpg,126,YF,001,2020-11-24_00h08.21.784,test2,2020.2.5,MacIntel,60,,,,,,,
,,,,m,1.271275,0,126,126,126,1,houses/images/211.jpg,houses/images/327.jpg,127,YF,001,2020-11-24_00h08.21.784,test2,2020.2.5,MacIntel,60,,,,,,,
,,,,z,4.07194,0,127,127,127,1,houses/images/212.jpg,houses/images/253.jpg,128,YF,001,2020-11-24_00h08.21.784,test2,2020.2.5,MacIntel,60,,,,,,,
,,,,m,10.75916,0,128,128,128,1,houses/images/213.jpg,houses/images/26.jpg,129,YF,001,2020-11-24_00h08.21.784,test2,2020.2.5,MacIntel,60,,,,,,,
,,,,z,3.775555,0,129,129,129,1,houses/images/214.jpg,houses/images/198.jpg,130,YF,001,2020-11-24_00h08.21.784,test2,2020.2.5,MacIntel,60,,,,,,,
,,,,z,2.425035,0,130,130,130,1,houses/images/215.jpg,houses/images/4.jpg,131,YF,001,2020-11-24_00h08.21.784,test2,2020.2.5,MacIntel,60,,,,,,,
,,,,z,3.708875,0,131,131,131,1,houses/images/316.jpg,houses/images/62.jpg,132,YF,001,2020-11-24_00h08.21.784,test2,2020.2.5,MacIntel,60,,,,,,,
,,,,z,2.08551,0,132,132,132,1,houses/images/217.jpg,houses/images/114.jpg,133,YF,001,2020-11-24_00h08.21.784,test2,2020.2.5,MacIntel,60,,,,,,,
,,,,m,6.556175,0,133,133,133,1,houses/images/318.jpg,houses/images/308.jpg,134,YF,001,2020-11-24_00h08.21.784,test2,2020.2.5,MacIntel,60,,,,,,,
,,,,m,4.804155,0,134,134,134,1,houses/images/219.jpg,houses/images/254.jpg,135,YF,001,2020-11-24_00h08.21.784,test2,2020.2.5,MacIntel,60,,,,,,,
,,,,m,1.840485,0,135,135,135,1,houses/images/22.jpg,houses/images/170.jpg,136,YF,001,2020-11-24_00h08.21.784,test2,2020.2.5,MacIntel,60,,,,,,,
,,,,m,1.70556,0,136,136,136,1,houses/images/220.jpg,houses/images/179.jpg,137,YF,001,2020-11-24_00h08.21.784,test2,2020.2.5,MacIntel,60,,,,,,,
,,,,m,2.825055,0,137,137,137,1,houses/images/221.jpg,houses/images/238.jpg,138,YF,001,2020-11-24_00h08.21.784,test2,2020.2.5,MacIntel,60,,,,,,,
,,,,m,2.870095,0,138,138,138,1,houses/images/222.jpg,houses/images/256.jpg,139,YF,001,2020-11-24_00h08.21.784,test2,2020.2.5,MacIntel,60,,,,,,,
,,,,m,3.35339,0,139,139,139,1,houses/images/223.jpg,houses/images/322.jpg,140,YF,001,2020-11-24_00h08.21.784,test2,2020.2.5,MacIntel,60,,,,,,,
,,,,m,2.65233,0,140,140,140,1,houses/images/224.jpg,houses/images/209.jpg,141,YF,001,2020-11-24_00h08.21.784,test2,2020.2.5,MacIntel,60,,,,,,,
,,,,z,13.934315,0,141,141,141,1,houses/images/225.jpg,houses/images/219.jpg,142,YF,001,2020-11-24_00h08.21.784,test2,2020.2.5,MacIntel,60,,,,,,,
,,,,z,5.059965,0,142,142,142,1,houses/images/226.jpg,houses/images/79.jpg,143,YF,001,2020-11-24_00h08.21.784,test2,2020.2.5,MacIntel,60,,,,,,,
,,,,z,3.873235,0,143,143,143,1,houses/images/227.jpg,houses/images/279.jpg,144,YF,001,2020-11-24_00h08.21.784,test2,2020.2.5,MacIntel,60,,,,,,,
,,,,z,1.872745,0,144,144,144,1,houses/images/228.jpg,houses/images/111.jpg,145,YF,001,2020-11-24_00h08.21.784,test2,2020.2.5,MacIntel,60,,,,,,,
,,,,m,4.944315,0,145,145,145,1,houses/images/229.jpg,houses/images/257.jpg,146,YF,001,2020-11-24_00h08.21.784,test2,2020.2.5,MacIntel,60,,,,,,,
,,,,m,2.944585,0,146,146,146,1,houses/images/23.jpg,houses/images/318.jpg,147,YF,001,2020-11-24_00h08.21.784,test2,2020.2.5,MacIntel,60,,,,,,,
,,,,z,2.30586,0,147,147,147,1,houses/images/230.jpg,houses/images/312.jpg,148,YF,001,2020-11-24_00h08.21.784,test2,2020.2.5,MacIntel,60,,,,,,,
,,,,z,2.36268,0,148,148,148,1,houses/images/231.jpg,houses/images/253.jpg,149,YF,001,2020-11-24_00h08.21.784,test2,2020.2.5,MacIntel,60,,,,,,,
,,,,z,4.854335,0,149,149,149,1,houses/images/232.jpg,houses/images/236.jpg,150,YF,001,2020-11-24_00h08.21.784,test2,2020.2.5,MacIntel,60,,,,,,,
,,,,z,7.49091,0,150,150,150,1,houses/images/233.jpg,houses/images/66.jpg,151,YF,001,2020-11-24_00h08.21.784,test2,2020.2.5,MacIntel,60,,,,,,,
,,,,z,2.286845,0,151,151,151,1,houses/images/234.jpg,houses/images/138.jpg,152,YF,001,2020-11-24_00h08.21.784,test2,2020.2.5,MacIntel,60,,,,,,,
,,,,m,2.9941,0,152,152,152,1,houses/images/235.jpg,houses/images/124.jpg,153,YF,001,2020-11-24_00h08.21.784,test2,2020.2.5,MacIntel,60,,,,,,,
,,,,z,3.79309,0,153,153,153,1,houses/images/236.jpg,houses/images/160.jpg,154,YF,001,2020-11-24_00h08.21.784,test2,2020.2.5,MacIntel,60,,,,,,,
,,,,m,2.955995,0,154,154,154,1,houses/images/237.jpg,houses/images/314.jpg,155,YF,001,2020-11-24_00h08.21.784,test2,2020.2.5,MacIntel,60,,,,,,,
,,,,m,3.575795,0,155,155,155,1,houses/images/238.jpg,houses/images/145.jpg,156,YF,001,2020-11-24_00h08.21.784,test2,2020.2.5,MacIntel,60,,,,,,,
,,,,m,2.01096,0,156,156,156,1,houses/images/239.jpg,houses/images/195.jpg,157,YF,001,2020-11-24_00h08.21.784,test2,2020.2.5,MacIntel,60,,,,,,,
,,,,z,8.22642,0,157,157,157,1,houses/images/24.jpg,houses/images/0.jpg,158,YF,001,2020-11-24_00h08.21.784,test2,2020.2.5,MacIntel,60,,,,,,,
,,,,z,1.606865,0,158,158,158,1,houses/images/240.jpg,houses/images/81.jpg,159,YF,001,2020-11-24_00h08.21.784,test2,2020.2.5,MacIntel,60,,,,,,,
,,,,m,1.74233,0,159,159,159,1,houses/images/241.jpg,houses/images/226.jpg,160,YF,001,2020-11-24_00h08.21.784,test2,2020.2.5,MacIntel,60,,,,,,,
,,,,m,2.258025,0,160,160,160,1,houses/images/342.jpg,houses/images/319.jpg,161,YF,001,2020-11-24_00h08.21.784,test2,2020.2.5,MacIntel,60,,,,,,,
,,,,z,4.83776,0,161,161,161,1,houses/images/243.jpg,houses/images/23.jpg,162,YF,001,2020-11-24_00h08.21.784,test2,2020.2.5,MacIntel,60,,,,,,,
,,,,m,4.02608,0,162,162,162,1,houses/images/244.jpg,houses/images/146.jpg,163,YF,001,2020-11-24_00h08.21.784,test2,2020.2.5,MacIntel,60,,,,,,,
,,,,m,8.02502,0,163,163,163,1,houses/images/245.jpg,houses/images/28.jpg,164,YF,001,2020-11-24_00h08.21.784,test2,2020.2.5,MacIntel,60,,,,,,,
,,,,m,3.791845,0,164,164,164,1,houses/images/246.jpg,houses/images/157.jpg,165,YF,001,2020-11-24_00h08.21.784,test2,2020.2.5,MacIntel,60,,,,,,,
,,,,z,2.324185,0,165,165,165,1,houses/images/247.jpg,houses/images/2.jpg,166,YF,001,2020-11-24_00h08.21.784,test2,2020.2.5,MacIntel,60,,,,,,,
,,,,z,5.03843,0,166,166,166,1,houses/images/248.jpg,houses/images/87.jpg,167,YF,001,2020-11-24_00h08.21.784,test2,2020.2.5,MacIntel,60,,,,,,,
,,,,z,7.912915,0,167,167,167,1,houses/images/249.jpg,houses/images/270.jpg,168,YF,001,2020-11-24_00h08.21.784,test2,2020.2.5,MacIntel,60,,,,,,,
,,,,m,4.00414,0,168,168,168,1,houses/images/25.jpg,houses/images/67.jpg,169,YF,001,2020-11-24_00h08.21.784,test2,2020.2.5,MacIntel,60,,,,,,,
,,,,m,1.651535,0,169,169,169,1,houses/images/250.jpg,houses/images/234.jpg,170,YF,001,2020-11-24_00h08.21.784,test2,2020.2.5,MacIntel,60,,,,,,,
,,,,m,3.3711,0,170,170,170,1,houses/images/251.jpg,houses/images/16.jpg,171,YF,001,2020-11-24_00h08.21.784,test2,2020.2.5,MacIntel,60,,,,,,,
,,,,z,9.20819,0,171,171,171,1,houses/images/252.jpg,houses/images/12.jpg,172,YF,001,2020-11-24_00h08.21.784,test2,2020.2.5,MacIntel,60,,,,,,,
,,,,m,2.865905,0,172,172,172,1,houses/images/253.jpg,houses/images/185.jpg,173,YF,001,2020-11-24_00h08.21.784,test2,2020.2.5,MacIntel,60,,,,,,,
,,,,z,6.39454,0,173,173,173,1,houses/images/254.jpg,houses/images/39.jpg,174,YF,001,2020-11-24_00h08.21.784,test2,2020.2.5,MacIntel,60,,,,,,,
,,,,z,3.28884,0,174,174,174,1,houses/images/255.jpg,houses/images/237.jpg,175,YF,001,2020-11-24_00h08.21.784,test2,2020.2.5,MacIntel,60,,,,,,,
,,,,z,2.26907,0,175,175,175,1,houses/images/256.jpg,houses/images/356.jpg,176,YF,001,2020-11-24_00h08.21.784,test2,2020.2.5,MacIntel,60,,,,,,,
,,,,z,1.4568,0,176,176,176,1,houses/images/257.jpg,houses/images/107.jpg,177,YF,001,2020-11-24_00h08.21.784,test2,2020.2.5,MacIntel,60,,,,,,,
,,,,m,23.103605,0,177,177,177,1,houses/images/258.jpg,houses/images/84.jpg,178,YF,001,2020-11-24_00h08.21.784,test2,2020.2.5,MacIntel,60,,,,,,,
,,,,m,1.67134,0,178,178,178,1,houses/images/259.jpg,houses/images/119.jpg,179,YF,001,2020-11-24_00h08.21.784,test2,2020.2.5,MacIntel,60,,,,,,,
,,,,m,1.807785,0,179,179,179,1,houses/images/26.jpg,houses/images/227.jpg,180,YF,001,2020-11-24_00h08.21.784,test2,2020.2.5,MacIntel,60,,,,,,,
,,,,m,1.67913,0,180,180,180,1,houses/images/260.jpg,houses/images/238.jpg,181,YF,001,2020-11-24_00h08.21.784,test2,2020.2.5,MacIntel,60,,,,,,,
,,,,m,7.867285,0,181,181,181,1,houses/images/261.jpg,houses/images/337.jpg,182,YF,001,2020-11-24_00h08.21.784,test2,2020.2.5,MacIntel,60,,,,,,,
,,,,z,1.721385,0,182,182,182,1,houses/images/262.jpg,houses/images/214.jpg,183,YF,001,2020-11-24_00h08.21.784,test2,2020.2.5,MacIntel,60,,,,,,,
,,,,z,2.343175,0,183,183,183,1,houses/images/263.jpg,houses/images/239.jpg,184,YF,001,2020-11-24_00h08.21.784,test2,2020.2.5,MacIntel,60,,,,,,,
,,,,m,4.337845,0,184,184,184,1,houses/images/264.jpg,houses/images/149.jpg,185,YF,001,2020-11-24_00h08.21.784,test2,2020.2.5,MacIntel,60,,,,,,,
,,,,m,2.904175,0,185,185,185,1,houses/images/265.jpg,houses/images/68.jpg,186,YF,001,2020-11-24_00h08.21.784,test2,2020.2.5,MacIntel,60,,,,,,,
,,,,m,1.250705,0,186,186,186,1,houses/images/266.jpg,houses/images/271.jpg,187,YF,001,2020-11-24_00h08.21.784,test2,2020.2.5,MacIntel,60,,,,,,,
,,,,z,3.0363,0,187,187,187,1,houses/images/267.jpg,houses/images/87.jpg,188,YF,001,2020-11-24_00h08.21.784,test2,2020.2.5,MacIntel,60,,,,,,,
,,,,z,7.62546,0,188,188,188,1,houses/images/268.jpg,houses/images/348.jpg,189,YF,001,2020-11-24_00h08.21.784,test2,2020.2.5,MacIntel,60,,,,,,,
,,,,m,1.78673,0,189,189,189,1,houses/images/269.jpg,houses/images/228.jpg,190,YF,001,2020-11-24_00h08.21.784,test2,2020.2.5,MacIntel,60,,,,,,,
,,,,m,2.417365,0,190,190,190,1,houses/images/27.jpg,houses/images/317.jpg,191,YF,001,2020-11-24_00h08.21.784,test2,2020.2.5,MacIntel,60,,,,,,,
,,,,m,1.56748,0,191,191,191,1,houses/images/270.jpg,houses/images/10.jpg,192,YF,001,2020-11-24_00h08.21.784,test2,2020.2.5,MacIntel,60,,,,,,,
,,,,z,2.469245,0,192,192,192,1,houses/images/271.jpg,houses/images/222.jpg,193,YF,001,2020-11-24_00h08.21.784,test2,2020.2.5,MacIntel,60,,,,,,,
,,,,m,3.67367,0,193,193,193,1,houses/images/272.jpg,houses/images/314.jpg,194,YF,001,2020-11-24_00h08.21.784,test2,2020.2.5,MacIntel,60,,,,,,,
,,,,m,4.27119,0,194,194,194,1,houses/images/273.jpg,houses/images/28.jpg,195,YF,001,2020-11-24_00h08.21.784,test2,2020.2.5,MacIntel,60,,,,,,,
,,,,m,2.690935,0,195,195,195,1,houses/images/174.jpg,houses/images/294.jpg,196,YF,001,2020-11-24_00h08.21.784,test2,2020.2.5,MacIntel,60,,,,,,,
,,,,m,5.56097,0,196,196,196,1,houses/images/275.jpg,houses/images/60.jpg,197,YF,001,2020-11-24_00h08.21.784,test2,2020.2.5,MacIntel,60,,,,,,,
,,,,z,2.284855,0,197,197,197,1,houses/images/276.jpg,houses/images/144.jpg,198,YF,001,2020-11-24_00h08.21.784,test2,2020.2.5,MacIntel,60,,,,,,,
,,,,z,6.023115,0,198,198,198,1,houses/images/277.jpg,houses/images/168.jpg,199,YF,001,2020-11-24_00h08.21.784,test2,2020.2.5,MacIntel,60,,,,,,,
,,,,z,4.06939,0,199,199,199,1,houses/images/278.jpg,houses/images/206.jpg,200,YF,001,2020-11-24_00h08.21.784,test2,2020.2.5,MacIntel,60,,,,,,,
,,,,z,6.704745,,,,,,houses/images/279.jpg,houses/images/91.jpg,1,YF,001,2020-11-24_00h08.21.784,test2,2020.2.5,MacIntel,60,space,368.394375,0,0,0,0,1
,,,,z,4.15482,,,,,,houses/images/28.jpg,houses/images/49.jpg,2,YF,001,2020-11-24_00h08.21.784,test2,2020.2.5,MacIntel,60,,,0,1,1,1,1
,,,,z,2.273165,,,,,,houses/images/280.jpg,houses/images/163.jpg,3,YF,001,2020-11-24_00h08.21.784,test2,2020.2.5,MacIntel,60,,,0,2,2,2,1
,,,,z,2.051965,,,,,,houses/images/281.jpg,houses/images/176.jpg,4,YF,001,2020-11-24_00h08.21.784,test2,2020.2.5,MacIntel,60,,,0,3,3,3,1
,,,,m,1.622,,,,,,houses/images/282.jpg,houses/images/263.jpg,5,YF,001,2020-11-24_00h08.21.784,test2,2020.2.5,MacIntel,60,,,0,4,4,4,1
,,,,m,2.385905,,,,,,houses/images/283.jpg,houses/images/303.jpg,6,YF,001,2020-11-24_00h08.21.784,test2,2020.2.5,MacIntel,60,,,0,5,5,5,1
,,,,z,2.352815,,,,,,houses/images/284.jpg,houses/images/184.jpg,7,YF,001,2020-11-24_00h08.21.784,test2,2020.2.5,MacIntel,60,,,0,6,6,6,1
,,,,z,3.253385,,,,,,houses/images/285.jpg,houses/images/264.jpg,8,YF,001,2020-11-24_00h08.21.784,test2,2020.2.5,MacIntel,60,,,0,7,7,7,1
,,,,m,3.84558,,,,,,houses/images/286.jpg,houses/images/89.jpg,9,YF,001,2020-11-24_00h08.21.784,test2,2020.2.5,MacIntel,60,,,0,8,8,8,1
,,,,m,1.66885,,,,,,houses/images/187.jpg,houses/images/350.jpg,10,YF,001,2020-11-24_00h08.21.784,test2,2020.2.5,MacIntel,60,,,0,9,9,9,1
,,,,m,3.95378,,,,,,houses/images/288.jpg,houses/images/267.jpg,11,YF,001,2020-11-24_00h08.21.784,test2,2020.2.5,MacIntel,60,,,0,10,10,10,1
,,,,z,9.02531,,,,,,houses/images/289.jpg,houses/images/332.jpg,12,YF,001,2020-11-24_00h08.21.784,test2,2020.2.5,MacIntel,60,,,0,11,11,11,1
,,,,m,2.20526,,,,,,houses/images/29.jpg,houses/images/61.jpg,13,YF,001,2020-11-24_00h08.21.784,test2,2020.2.5,MacIntel,60,,,0,12,12,12,1
,,,,z,8.940975,,,,,,houses/images/290.jpg,houses/images/102.jpg,14,YF,001,2020-11-24_00h08.21.784,test2,2020.2.5,MacIntel,60,,,0,13,13,13,1
,,,,z,1.57033,,,,,,houses/images/291.jpg,houses/images/220.jpg,15,YF,001,2020-11-24_00h08.21.784,test2,2020.2.5,MacIntel,60,,,0,14,14,14,1
,,,,m,5.29441,,,,,,houses/images/292.jpg,houses/images/121.jpg,16,YF,001,2020-11-24_00h08.21.784,test2,2020.2.5,MacIntel,60,,,0,15,15,15,1
,,,,z,1.973715,,,,,,houses/images/293.jpg,houses/images/25.jpg,17,YF,001,2020-11-24_00h08.21.784,test2,2020.2.5,MacIntel,60,,,0,16,16,16,1
,,,,m,13.234965,,,,,,houses/images/294.jpg,houses/images/284.jpg,18,YF,001,2020-11-24_00h08.21.784,test2,2020.2.5,MacIntel,60,,,0,17,17,17,1
,,,,z,2.1781,,,,,,houses/images/295.jpg,houses/images/273.jpg,19,YF,001,2020-11-24_00h08.21.784,test2,2020.2.5,MacIntel,60,,,0,18,18,18,1
,,,,m,2.4566,,,,,,houses/images/296.jpg,houses/images/122.jpg,20,YF,001,2020-11-24_00h08.21.784,test2,2020.2.5,MacIntel,60,,,0,19,19,19,1
,,,,z,1.77298,,,,,,houses/images/297.jpg,houses/images/217.jpg,21,YF,001,2020-11-24_00h08.21.784,test2,2020.2.5,MacIntel,60,,,0,20,20,20,1
,,,,z,2.222145,,,,,,houses/images/298.jpg,houses/images/178.jpg,22,YF,001,2020-11-24_00h08.21.784,test2,2020.2.5,MacIntel,60,,,0,21,21,21,1
,,,,m,3.35973,,,,,,houses/images/299.jpg,houses/images/43.jpg,23,YF,001,2020-11-24_00h08.21.784,test2,2020.2.5,MacIntel,60,,,0,22,22,22,1
,,,,m,1.93521,,,,,,houses/images/3.jpg,houses/images/229.jpg,24,YF,001,2020-11-24_00h08.21.784,test2,2020.2.5,MacIntel,60,,,0,23,23,23,1
,,,,m,3.92578,,,,,,houses/images/30.jpg,houses/images/177.jpg,25,YF,001,2020-11-24_00h08.21.784,test2,2020.2.5,MacIntel,60,,,0,24,24,24,1
,,,,z,2.43076,,,,,,houses/images/300.jpg,houses/images/342.jpg,26,YF,001,2020-11-24_00h08.21.784,test2,2020.2.5,MacIntel,60,,,0,25,25,25,1
,,,,m,3.19196,,,,,,houses/images/201.jpg,houses/images/57.jpg,27,YF,001,2020-11-24_00h08.21.784,test2,2020.2.5,MacIntel,60,,,0,26,26,26,1
,,,,z,1.418395,,,,,,houses/images/302.jpg,houses/images/186.jpg,28,YF,001,2020-11-24_00h08.21.784,test2,2020.2.5,MacIntel,60,,,0,27,27,27,1
,,,,m,6.289945,,,,,,houses/images/303.jpg,houses/images/131.jpg,29,YF,001,2020-11-24_00h08.21.784,test2,2020.2.5,MacIntel,60,,,0,28,28,28,1
,,,,z,1.417885,,,,,,houses/images/304.jpg,houses/images/183.jpg,30,YF,001,2020-11-24_00h08.21.784,test2,2020.2.5,MacIntel,60,,,0,29,29,29,1
,,,,z,3.67011,,,,,,houses/images/305.jpg,houses/images/200.jpg,31,YF,001,2020-11-24_00h08.21.784,test2,2020.2.5,MacIntel,60,,,0,30,30,30,1
,,,,z,2.54084,,,,,,houses/images/306.jpg,houses/images/94.jpg,32,YF,001,2020-11-24_00h08.21.784,test2,2020.2.5,MacIntel,60,,,0,31,31,31,1
,,,,m,5.158645,,,,,,houses/images/307.jpg,houses/images/96.jpg,33,YF,001,2020-11-24_00h08.21.784,test2,2020.2.5,MacIntel,60,,,0,32,32,32,1
,,,,z,7.68986,,,,,,houses/images/308.jpg,houses/images/76.jpg,34,YF,001,2020-11-24_00h08.21.784,test2,2020.2.5,MacIntel,60,,,0,33,33,33,1
,,,,m,3.922365,,,,,,houses/images/309.jpg,houses/images/78.jpg,35,YF,001,2020-11-24_00h08.21.784,test2,2020.2.5,MacIntel,60,,,0,34,34,34,1
,,,,z,7.13999,,,,,,houses/images/31.jpg,houses/images/76.jpg,36,YF,001,2020-11-24_00h08.21.784,test2,2020.2.5,MacIntel,60,,,0,35,35,35,1
,,,,m,5.3856,,,,,,houses/images/310.jpg,houses/images/128.jpg,37,YF,001,2020-11-24_00h08.21.784,test2,2020.2.5,MacIntel,60,,,0,36,36,36,1
,,,,m,2.023895,,,,,,houses/images/311.jpg,houses/images/190.jpg,38,YF,001,2020-11-24_00h08.21.784,test2,2020.2.5,MacIntel,60,,,0,37,37,37,1
,,,,z,6.31223,,,,,,houses/images/312.jpg,houses/images/5.jpg,39,YF,001,2020-11-24_00h08.21.784,test2,2020.2.5,MacIntel,60,,,0,38,38,38,1
,,,,z,2.37207,,,,,,houses/images/313.jpg,houses/images/188.jpg,40,YF,001,2020-11-24_00h08.21.784,test2,2020.2.5,MacIntel,60,,,0,39,39,39,1
,,,,z,2.14265,,,,,,houses/images/314.jpg,houses/images/342.jpg,41,YF,001,2020-11-24_00h08.21.784,test2,2020.2.5,MacIntel,60,,,0,40,40,40,1
,,,,z,2.11883,,,,,,houses/images/315.jpg,houses/images/288.jpg,42,YF,001,2020-11-24_00h08.21.784,test2,2020.2.5,MacIntel,60,,,0,41,41,41,1
,,,,m,5.57214,,,,,,houses/images/316.jpg,houses/images/321.jpg,43,YF,001,2020-11-24_00h08.21.784,test2,2020.2.5,MacIntel,60,,,0,42,42,42,1
,,,,z,4.458225,,,,,,houses/images/317.jpg,houses/images/82.jpg,44,YF,001,2020-11-24_00h08.21.784,test2,2020.2.5,MacIntel,60,,,0,43,43,43,1
,,,,z,16.053105,,,,,,houses/images/318.jpg,houses/images/169.jpg,45,YF,001,2020-11-24_00h08.21.784,test2,2020.2.5,MacIntel,60,,,0,44,44,44,1
,,,,z,2.91964,,,,,,houses/images/319.jpg,houses/images/224.jpg,46,YF,001,2020-11-24_00h08.21.784,test2,2020.2.5,MacIntel,60,,,0,45,45,45,1
,,,,z,4.70407,,,,,,houses/images/32.jpg,houses/images/175.jpg,47,YF,001,2020-11-24_00h08.21.784,test2,2020.2.5,MacIntel,60,,,0,46,46,46,1
,,,,m,4.304195,,,,,,houses/images/320.jpg,houses/images/247.jpg,48,YF,001,2020-11-24_00h08.21.784,test2,2020.2.5,MacIntel,60,,,0,47,47,47,1
,,,,z,1.9521,,,,,,houses/images/321.jpg,houses/images/97.jpg,49,YF,001,2020-11-24_00h08.21.784,test2,2020.2.5,MacIntel,60,,,0,48,48,48,1
,,,,z,3.38685,,,,,,houses/images/322.jpg,houses/images/74.jpg,50,YF,001,2020-11-24_00h08.21.784,test2,2020.2.5,MacIntel,60,,,0,49,49,49,1
,,,,z,8.05898,,,,,,houses/images/323.jpg,houses/images/148.jpg,51,YF,001,2020-11-24_00h08.21.784,test2,2020.2.5,MacIntel,60,,,0,50,50,50,1
,,,,z,15.81333,,,,,,houses/images/324.jpg,houses/images/313.jpg,52,YF,001,2020-11-24_00h08.21.784,test2,2020.2.5,MacIntel,60,,,0,51,51,51,1
,,,,z,3.52061,,,,,,houses/images/325.jpg,houses/images/11.jpg,53,YF,001,2020-11-24_00h08.21.784,test2,2020.2.5,MacIntel,60,,,0,52,52,52,1
,,,,z,12.83386,,,,,,houses/images/326.jpg,houses/images/21.jpg,54,YF,001,2020-11-24_00h08.21.784,test2,2020.2.5,MacIntel,60,,,0,53,53,53,1
,,,,z,6.669995,,,,,,houses/images/327.jpg,houses/images/281.jpg,55,YF,001,2020-11-24_00h08.21.784,test2,2020.2.5,MacIntel,60,,,0,54,54,54,1
,,,,m,4.25984,,,,,,houses/images/328.jpg,houses/images/172.jpg,56,YF,001,2020-11-24_00h08.21.784,test2,2020.2.5,MacIntel,60,,,0,55,55,55,1
,,,,z,1.70814,,,,,,houses/images/329.jpg,houses/images/273.jpg,57,YF,001,2020-11-24_00h08.21.784,test2,2020.2.5,MacIntel,60,,,0,56,56,56,1
,,,,z,2.043445,,,,,,houses/images/33.jpg,houses/images/239.jpg,58,YF,001,2020-11-24_00h08.21.784,test2,2020.2.5,MacIntel,60,,,0,57,57,57,1
,,,,m,2.783735,,,,,,houses/images/330.jpg,houses/images/333.jpg,59,YF,001,2020-11-24_00h08.21.784,test2,2020.2.5,MacIntel,60,,,0,58,58,58,1
,,,,m,2.939025,,,,,,houses/images/331.jpg,houses/images/361.jpg,60,YF,001,2020-11-24_00h08.21.784,test2,2020.2.5,MacIntel,60,,,0,59,59,59,1
,,,,z,2.95858,,,,,,houses/images/332.jpg,houses/images/91.jpg,61,YF,001,2020-11-24_00h08.21.784,test2,2020.2.5,MacIntel,60,,,0,60,60,60,1
,,,,z,2.153965,,,,,,houses/images/333.jpg,houses/images/158.jpg,62,YF,001,2020-11-24_00h08.21.784,test2,2020.2.5,MacIntel,60,,,0,61,61,61,1
,,,,m,4.121125,,,,,,houses/images/334.jpg,houses/images/10.jpg,63,YF,001,2020-11-24_00h08.21.784,test2,2020.2.5,MacIntel,60,,,0,62,62,62,1
,,,,z,1.107655,,,,,,houses/images/335.jpg,houses/images/331.jpg,64,YF,001,2020-11-24_00h08.21.784,test2,2020.2.5,MacIntel,60,,,0,63,63,63,1
,,,,m,6.138715,,,,,,houses/images/336.jpg,houses/images/171.jpg,65,YF,001,2020-11-24_00h08.21.784,test2,2020.2.5,MacIntel,60,,,0,64,64,64,1
,,,,m,1.408725,,,,,,houses/images/337.jpg,houses/images/226.jpg,66,YF,001,2020-11-24_00h08.21.784,test2,2020.2.5,MacIntel,60,,,0,65,65,65,1
,,,,m,4.550665,,,,,,houses/images/238.jpg,houses/images/214.jpg,67,YF,001,2020-11-24_00h08.21.784,test2,2020.2.5,MacIntel,60,,,0,66,66,66,1
,,,,m,1.15389,,,,,,houses/images/239.jpg,houses/images/130.jpg,68,YF,001,2020-11-24_00h08.21.784,test2,2020.2.5,MacIntel,60,,,0,67,67,67,1
,,,,z,1.47406,,,,,,houses/images/34.jpg,houses/images/85.jpg,69,YF,001,2020-11-24_00h08.21.784,test2,2020.2.5,MacIntel,60,,,0,68,68,68,1
,,,,z,11.56263,,,,,,houses/images/340.jpg,houses/images/248.jpg,70,YF,001,2020-11-24_00h08.21.784,test2,2020.2.5,MacIntel,60,,,0,69,69,69,1
,,,,z,2.156965,,,,,,houses/images/341.jpg,houses/images/215.jpg,71,YF,001,2020-11-24_00h08.21.784,test2,2020.2.5,MacIntel,60,,,0,70,70,70,1
,,,,m,3.211555,,,,,,houses/images/342.jpg,houses/images/155.jpg,72,YF,001,2020-11-24_00h08.21.784,test2,2020.2.5,MacIntel,60,,,0,71,71,71,1
,,,,z,7.537915,,,,,,houses/images/343.jpg,houses/images/193.jpg,73,YF,001,2020-11-24_00h08.21.784,test2,2020.2.5,MacIntel,60,,,0,72,72,72,1
,,,,m,10.21211,,,,,,houses/images/344.jpg,houses/images/324.jpg,74,YF,001,2020-11-24_00h08.21.784,test2,2020.2.5,MacIntel,60,,,0,73,73,73,1
,,,,z,3.553415,,,,,,houses/images/345.jpg,houses/images/86.jpg,75,YF,001,2020-11-24_00h08.21.784,test2,2020.2.5,MacIntel,60,,,0,74,74,74,1
,,,,z,4.758755,,,,,,houses/images/246.jpg,houses/images/295.jpg,76,YF,001,2020-11-24_00h08.21.784,test2,2020.2.5,MacIntel,60,,,0,75,75,75,1
,,,,m,5.42358,,,,,,houses/images/347.jpg,houses/images/292.jpg,77,YF,001,2020-11-24_00h08.21.784,test2,2020.2.5,MacIntel,60,,,0,76,76,76,1
,,,,z,2.00405,,,,,,houses/images/348.jpg,houses/images/55.jpg,78,YF,001,2020-11-24_00h08.21.784,test2,2020.2.5,MacIntel,60,,,0,77,77,77,1
,,,,m,15.029845,,,,,,houses/images/349.jpg,houses/images/1.jpg,79,YF,001,2020-11-24_00h08.21.784,test2,2020.2.5,MacIntel,60,,,0,78,78,78,1
,,,,z,6.708925,,,,,,houses/images/35.jpg,houses/images/73.jpg,80,YF,001,2020-11-24_00h08.21.784,test2,2020.2.5,MacIntel,60,,,0,79,79,79,1
,,,,m,5.04629,,,,,,houses/images/350.jpg,houses/images/44.jpg,81,YF,001,2020-11-24_00h08.21.784,test2,2020.2.5,MacIntel,60,,,0,80,80,80,1
,,,,z,1.46658,,,,,,houses/images/351.jpg,houses/images/6.jpg,82,YF,001,2020-11-24_00h08.21.784,test2,2020.2.5,MacIntel,60,,,0,81,81,81,1
,,,,m,4.853825,,,,,,houses/images/352.jpg,houses/images/20.jpg,83,YF,001,2020-11-24_00h08.21.784,test2,2020.2.5,MacIntel,60,,,0,82,82,82,1
,,,,m,3.767975,,,,,,houses/images/353.jpg,houses/images/18.jpg,84,YF,001,2020-11-24_00h08.21.784,test2,2020.2.5,MacIntel,60,,,0,83,83,83,1
,,,,z,14.381865,,,,,,houses/images/354.jpg,houses/images/347.jpg,85,YF,001,2020-11-24_00h08.21.784,test2,2020.2.5,MacIntel,60,,,0,84,84,84,1
,,,,z,14.93375,,,,,,houses/images/355.jpg,houses/images/27.jpg,86,YF,001,2020-11-24_00h08.21.784,test2,2020.2.5,MacIntel,60,,,0,85,85,85,1
,,,,m,1.955,,,,,,houses/images/356.jpg,houses/images/276.jpg,87,YF,001,2020-11-24_00h08.21.784,test2,2020.2.5,MacIntel,60,,,0,86,86,86,1
,,,,z,3.020745,,,,,,houses/images/357.jpg,houses/images/345.jpg,88,YF,001,2020-11-24_00h08.21.784,test2,2020.2.5,MacIntel,60,,,0,87,87,87,1
,,,,z,2.370935,,,,,,houses/images/358.jpg,houses/images/235.jpg,89,YF,001,2020-11-24_00h08.21.784,test2,2020.2.5,MacIntel,60,,,0,88,88,88,1
,,,,z,1.950255,,,,,,houses/images/359.jpg,houses/images/115.jpg,90,YF,001,2020-11-24_00h08.21.784,test2,2020.2.5,MacIntel,60,,,0,89,89,89,1
,,,,z,3.53646,,,,,,houses/images/36.jpg,houses/images/310.jpg,91,YF,001,2020-11-24_00h08.21.784,test2,2020.2.5,MacIntel,60,,,0,90,90,90,1
,,,,m,31.843435,,,,,,houses/images/360.jpg,houses/images/93.jpg,92,YF,001,2020-11-24_00h08.21.784,test2,2020.2.5,MacIntel,60,,,0,91,91,91,1
,,,,z,4.793255,,,,,,houses/images/361.jpg,houses/images/212.jpg,93,YF,001,2020-11-24_00h08.21.784,test2,2020.2.5,MacIntel,60,,,0,92,92,92,1
,,,,z,1.80206,,,,,,houses/images/62.jpg,houses/images/51.jpg,94,YF,001,2020-11-24_00h08.21.784,test2,2020.2.5,MacIntel,60,,,0,93,93,93,1
,,,,z,2.26898,,,,,,houses/images/37.jpg,houses/images/108.jpg,95,YF,001,2020-11-24_00h08.21.784,test2,2020.2.5,MacIntel,60,,,0,94,94,94,1
,,,,m,7.62382,,,,,,houses/images/38.jpg,houses/images/127.jpg,96,YF,001,2020-11-24_00h08.21.784,test2,2020.2.5,MacIntel,60,,,0,95,95,95,1
,,,,m,2.303395,,,,,,houses/images/39.jpg,houses/images/52.jpg,97,YF,001,2020-11-24_00h08.21.784,test2,2020.2.5,MacIntel,60,,,0,96,96,96,1
,,,,m,1.49428,,,,,,houses/images/4.jpg,houses/images/318.jpg,98,YF,001,2020-11-24_00h08.21.784,test2,2020.2.5,MacIntel,60,,,0,97,97,97,1
,,,,z,3.113225,,,,,,houses/images/40.jpg,houses/images/201.jpg,99,YF,001,2020-11-24_00h08.21.784,test2,2020.2.5,MacIntel,60,,,0,98,98,98,1
,,,,z,1.93532,,,,,,houses/images/41.jpg,houses/images/7.jpg,100,YF,001,2020-11-24_00h08.21.784,test2,2020.2.5,MacIntel,60,,,0,99,99,99,1
,,,,z,2.4539,,,,,,houses/images/42.jpg,houses/images/340.jpg,101,YF,001,2020-11-24_00h08.21.784,test2,2020.2.5,MacIntel,60,,,0,100,100,100,1
,,,,z,2.55224,,,,,,houses/images/43.jpg,houses/images/150.jpg,102,YF,001,2020-11-24_00h08.21.784,test2,2020.2.5,MacIntel,60,,,0,101,101,101,1
,,,,m,3.394345,,,,,,houses/images/44.jpg,houses/images/246.jpg,103,YF,001,2020-11-24_00h08.21.784,test2,2020.2.5,MacIntel,60,,,0,102,102,102,1
,,,,z,3.25812,,,,,,houses/images/145.jpg,houses/images/18.jpg,104,YF,001,2020-11-24_00h08.21.784,test2,2020.2.5,MacIntel,60,,,0,103,103,103,1
,,,,m,6.17588,,,,,,houses/images/46.jpg,houses/images/211.jpg,105,YF,001,2020-11-24_00h08.21.784,test2,2020.2.5,MacIntel,60,,,0,104,104,104,1
,,,,m,1.88641,,,,,,houses/images/47.jpg,houses/images/282.jpg,106,YF,001,2020-11-24_00h08.21.784,test2,2020.2.5,MacIntel,60,,,0,105,105,105,1
,,,,m,6.02479,,,,,,houses/images/48.jpg,houses/images/145.jpg,107,YF,001,2020-11-24_00h08.21.784,test2,2020.2.5,MacIntel,60,,,0,106,106,106,1
,,,,m,1.46885,,,,,,houses/images/49.jpg,houses/images/135.jpg,108,YF,001,2020-11-24_00h08.21.784,test2,2020.2.5,MacIntel,60,,,0,107,107,107,1
,,,,z,2.185855,,,,,,houses/images/5.jpg,houses/images/59.jpg,109,YF,001,2020-11-24_00h08.21.784,test2,2020.2.5,MacIntel,60,,,0,108,108,108,1
,,,,z,1.49927,,,,,,houses/images/50.jpg,houses/images/164.jpg,110,YF,001,2020-11-24_00h08.21.784,test2,2020.2.5,MacIntel,60,,,0,109,109,109,1
,,,,m,1.212695,,,,,,houses/images/51.jpg,houses/images/42.jpg,111,YF,001,2020-11-24_00h08.21.784,test2,2020.2.5,MacIntel,60,,,0,110,110,110,1
,,,,m,3.203165,,,,,,houses/images/52.jpg,houses/images/32.jpg,112,YF,001,2020-11-24_00h08.21.784,test2,2020.2.5,MacIntel,60,,,0,111,111,111,1
,,,,m,2.640485,,,,,,houses/images/53.jpg,houses/images/357.jpg,113,YF,001,2020-11-24_00h08.21.784,test2,2020.2.5,MacIntel,60,,,0,112,112,112,1
,,,,m,7.144335,,,,,,houses/images/54.jpg,houses/images/305.jpg,114,YF,001,2020-11-24_00h08.21.784,test2,2020.2.5,MacIntel,60,,,0,113,113,113,1
,,,,m,1.350905,,,,,,houses/images/55.jpg,houses/images/352.jpg,115,YF,001,2020-11-24_00h08.21.784,test2,2020.2.5,MacIntel,60,,,0,114,114,114,1
,,,,z,1.10939,,,,,,houses/images/56.jpg,houses/images/273.jpg,116,YF,001,2020-11-24_00h08.21.784,test2,2020.2.5,MacIntel,60,,,0,115,115,115,1
,,,,z,4.37055,,,,,,houses/images/57.jpg,houses/images/143.jpg,117,YF,001,2020-11-24_00h08.21.784,test2,2020.2.5,MacIntel,60,,,0,116,116,116,1
,,,,m,2.352455,,,,,,houses/images/58.jpg,houses/images/95.jpg,118,YF,001,2020-11-24_00h08.21.784,test2,2020.2.5,MacIntel,60,,,0,117,117,117,1
,,,,z,5.67119,,,,,,houses/images/59.jpg,houses/images/244.jpg,119,YF,001,2020-11-24_00h08.21.784,test2,2020.2.5,MacIntel,60,,,0,118,118,118,1
,,,,m,7.08958,,,,,,houses/images/6.jpg,houses/images/202.jpg,120,YF,001,2020-11-24_00h08.21.784,test2,2020.2.5,MacIntel,60,,,0,119,119,119,1
,,,,m,3.37454,,,,,,houses/images/60.jpg,houses/images/203.jpg,121,YF,001,2020-11-24_00h08.21.784,test2,2020.2.5,MacIntel,60,,,0,120,120,120,1
,,,,z,2.651945,,,,,,houses/images/61.jpg,houses/images/123.jpg,122,YF,001,2020-11-24_00h08.21.784,test2,2020.2.5,MacIntel,60,,,0,121,121,121,1
,,,,z,3.8577,,,,,,houses/images/62.jpg,houses/images/353.jpg,123,YF,001,2020-11-24_00h08.21.784,test2,2020.2.5,MacIntel,60,,,0,122,122,122,1
,,,,z,8.46301,,,,,,houses/images/63.jpg,houses/images/281.jpg,124,YF,001,2020-11-24_00h08.21.784,test2,2020.2.5,MacIntel,60,,,0,123,123,123,1
,,,,m,3.521235,,,,,,houses/images/64.jpg,houses/images/280.jpg,125,YF,001,2020-11-24_00h08.21.784,test2,2020.2.5,MacIntel,60,,,0,124,124,124,1
,,,,z,1.82215,,,,,,houses/images/65.jpg,houses/images/309.jpg,126,YF,001,2020-11-24_00h08.21.784,test2,2020.2.5,MacIntel,60,,,0,125,125,125,1
,,,,m,2.552715,,,,,,houses/images/66.jpg,houses/images/302.jpg,127,YF,001,2020-11-24_00h08.21.784,test2,2020.2.5,MacIntel,60,,,0,126,126,126,1
,,,,m,4.05511,,,,,,houses/images/67.jpg,houses/images/300.jpg,128,YF,001,2020-11-24_00h08.21.784,test2,2020.2.5,MacIntel,60,,,0,127,127,127,1
,,,,m,1.98496,,,,,,houses/images/68.jpg,houses/images/328.jpg,129,YF,001,2020-11-24_00h08.21.784,test2,2020.2.5,MacIntel,60,,,0,128,128,128,1
,,,,z,3.54478,,,,,,houses/images/69.jpg,houses/images/114.jpg,130,YF,001,2020-11-24_00h08.21.784,test2,2020.2.5,MacIntel,60,,,0,129,129,129,1
,,,,m,3.25763,,,,,,houses/images/7.jpg,houses/images/31.jpg,131,YF,001,2020-11-24_00h08.21.784,test2,2020.2.5,MacIntel,60,,,0,130,130,130,1
,,,,m,6.81114,,,,,,houses/images/70.jpg,houses/images/54.jpg,132,YF,001,2020-11-24_00h08.21.784,test2,2020.2.5,MacIntel,60,,,0,131,131,131,1
,,,,m,2.309735,,,,,,houses/images/71.jpg,houses/images/293.jpg,133,YF,001,2020-11-24_00h08.21.784,test2,2020.2.5,MacIntel,60,,,0,132,132,132,1
,,,,z,7.36009,,,,,,houses/images/72.jpg,houses/images/37.jpg,134,YF,001,2020-11-24_00h08.21.784,test2,2020.2.5,MacIntel,60,,,0,133,133,133,1
,,,,m,1.559515,,,,,,houses/images/73.jpg,houses/images/230.jpg,135,YF,001,2020-11-24_00h08.21.784,test2,2020.2.5,MacIntel,60,,,0,134,134,134,1
,,,,z,2.836135,,,,,,houses/images/74.jpg,houses/images/88.jpg,136,YF,001,2020-11-24_00h08.21.784,test2,2020.2.5,MacIntel,60,,,0,135,135,135,1
,,,,m,1.24216,,,,,,houses/images/75.jpg,houses/images/161.jpg,137,YF,001,2020-11-24_00h08.21.784,test2,2020.2.5,MacIntel,60,,,0,136,136,136,1
,,,,m,2.293285,,,,,,houses/images/76.jpg,houses/images/354.jpg,138,YF,001,2020-11-24_00h08.21.784,test2,2020.2.5,MacIntel,60,,,0,137,137,137,1
,,,,z,10.17917,,,,,,houses/images/77.jpg,houses/images/251.jpg,139,YF,001,2020-11-24_00h08.21.784,test2,2020.2.5,MacIntel,60,,,0,138,138,138,1
,,,,z,3.92829,,,,,,houses/images/78.jpg,houses/images/143.jpg,140,YF,001,2020-11-24_00h08.21.784,test2,2020.2.5,MacIntel,60,,,0,139,139,139,1
,,,,m,1.80704,,,,,,houses/images/79.jpg,houses/images/335.jpg,141,YF,001,2020-11-24_00h08.21.784,test2,2020.2.5,MacIntel,60,,,0,140,140,140,1
,,,,m,1.32208,,,,,,houses/images/8.jpg,houses/images/231.jpg,142,YF,001,2020-11-24_00h08.21.784,test2,2020.2.5,MacIntel,60,,,0,141,141,141,1
,,,,m,1.750785,,,,,,houses/images/80.jpg,houses/images/69.jpg,143,YF,001,2020-11-24_00h08.21.784,test2,2020.2.5,MacIntel,60,,,0,142,142,142,1
,,,,m,1.987255,,,,,,houses/images/81.jpg,houses/images/92.jpg,144,YF,001,2020-11-24_00h08.21.784,test2,2020.2.5,MacIntel,60,,,0,143,143,143,1
,,,,z,4.29341,,,,,,houses/images/82.jpg,houses/images/221.jpg,145,YF,001,2020-11-24_00h08.21.784,test2,2020.2.5,MacIntel,60,,,0,144,144,144,1
,,,,z,3.873225,,,,,,houses/images/83.jpg,houses/images/196.jpg,146,YF,001,2020-11-24_00h08.21.784,test2,2020.2.5,MacIntel,60,,,0,145,145,145,1
,,,,z,1.201065,,,,,,houses/images/84.jpg,houses/images/53.jpg,147,YF,001,2020-11-24_00h08.21.784,test2,2020.2.5,MacIntel,60,,,0,146,146,146,1
,,,,z,2.485655,,,,,,houses/images/85.jpg,houses/images/166.jpg,148,YF,001,2020-11-24_00h08.21.784,test2,2020.2.5,MacIntel,60,,,0,147,147,147,1
,,,,m,1.93976,,,,,,houses/images/86.jpg,houses/images/266.jpg,149,YF,001,2020-11-24_00h08.21.784,test2,2020.2.5,MacIntel,60,,,0,148,148,148,1
,,,,m,11.445365,,,,,,houses/images/87.jpg,houses/images/355.jpg,150,YF,001,2020-11-24_00h08.21.784,test2,2020.2.5,MacIntel,60,,,0,149,149,149,1
,,,,z,4.93692,,,,,,houses/images/88.jpg,houses/images/206.jpg,151,YF,001,2020-11-24_00h08.21.784,test2,2020.2.5,MacIntel,60,,,0,150,150,150,1
,,,,z,7.622735,,,,,,houses/images/89.jpg,houses/images/241.jpg,152,YF,001,2020-11-24_00h08.21.784,test2,2020.2.5,MacIntel,60,,,0,151,151,151,1
,,,,m,3.452765,,,,,,houses/images/9.jpg,houses/images/147.jpg,153,YF,001,2020-11-24_00h08.21.784,test2,2020.2.5,MacIntel,60,,,0,152,152,152,1
,,,,m,1.918255,,,,,,houses/images/90.jpg,houses/images/117.jpg,154,YF,001,2020-11-24_00h08.21.784,test2,2020.2.5,MacIntel,60,,,0,153,153,153,1
,,,,m,1.423375,,,,,,houses/images/91.jpg,houses/images/34.jpg,155,YF,001,2020-11-24_00h08.21.784,test2,2020.2.5,MacIntel,60,,,0,154,154,154,1
,,,,m,11.044195,,,,,,houses/images/92.jpg,houses/images/105.jpg,156,YF,001,2020-11-24_00h08.21.784,test2,2020.2.5,MacIntel,60,,,0,155,155,155,1
,,,,z,2.644255,,,,,,houses/images/93.jpg,houses/images/249.jpg,157,YF,001,2020-11-24_00h08.21.784,test2,2020.2.5,MacIntel,60,,,0,156,156,156,1
,,,,m,10.174495,,,,,,houses/images/94.jpg,houses/images/265.jpg,158,YF,001,2020-11-24_00h08.21.784,test2,2020.2.5,MacIntel,60,,,0,157,157,157,1
,,,,z,2.03644,,,,,,houses/images/95.jpg,houses/images/65.jpg,159,YF,001,2020-11-24_00h08.21.784,test2,2020.2.5,MacIntel,60,,,0,158,158,158,1
,,,,z,6.407895,,,,,,houses/images/96.jpg,houses/images/83.jpg,160,YF,001,2020-11-24_00h08.21.784,test2,2020.2.5,MacIntel,60,,,0,159,159,159,1
,,,,m,1.301685,,,,,,houses/images/97.jpg,houses/images/165.jpg,161,YF,001,2020-11-24_00h08.21.784,test2,2020.2.5,MacIntel,60,,,0,160,160,160,1
,,,,m,3.555885,,,,,,houses/images/98.jpg,houses/images/280.jpg,162,YF,001,2020-11-24_00h08.21.784,test2,2020.2.5,MacIntel,60,,,0,161,161,161,1
,,,,m,1.70175,,,,,,houses/images/199.jpg,houses/images/278.jpg,163,YF,001,2020-11-24_00h08.21.784,test2,2020.2.5,MacIntel,60,,,0,162,162,162,1
,,,,m,3.296435,,,,,,houses/images/0.jpg,houses/images/297.jpg,164,YF,001,2020-11-24_00h08.21.784,test2,2020.2.5,MacIntel,60,,,0,163,163,163,1
,,,,z,7.741385,,,,,,houses/images/1.jpg,houses/images/225.jpg,165,YF,001,2020-11-24_00h08.21.784,test2,2020.2.5,MacIntel,60,,,0,164,164,164,1
,,,,m,1.529115,,,,,,houses/images/10.jpg,houses/images/41.jpg,166,YF,001,2020-11-24_00h08.21.784,test2,2020.2.5,MacIntel,60,,,0,165,165,165,1
,,,,m,1.266715,,,,,,houses/images/100.jpg,houses/images/19.jpg,167,YF,001,2020-11-24_00h08.21.784,test2,2020.2.5,MacIntel,60,,,0,166,166,166,1
,,,,m,2.102235,,,,,,houses/images/101.jpg,houses/images/189.jpg,168,YF,001,2020-11-24_00h08.21.784,test2,2020.2.5,MacIntel,60,,,0,167,167,167,1
,,,,m,2.569655,,,,,,houses/images/102.jpg,houses/images/141.jpg,169,YF,001,2020-11-24_00h08.21.784,test2,2020.2.5,MacIntel,60,,,0,168,168,168,1
,,,,m,1.5751,,,,,,houses/images/103.jpg,houses/images/212.jpg,170,YF,001,2020-11-24_00h08.21.784,test2,2020.2.5,MacIntel,60,,,0,169,169,169,1
,,,,m,1.50202,,,,,,houses/images/104.jpg,houses/images/134.jpg,171,YF,001,2020-11-24_00h08.21.784,test2,2020.2.5,MacIntel,60,,,0,170,170,170,1
,,,,z,5.00804,,,,,,houses/images/105.jpg,houses/images/13.jpg,172,YF,001,2020-11-24_00h08.21.784,test2,2020.2.5,MacIntel,60,,,0,171,171,171,1
,,,,m,1.618425,,,,,,houses/images/106.jpg,houses/images/258.jpg,173,YF,001,2020-11-24_00h08.21.784,test2,2020.2.5,MacIntel,60,,,0,172,172,172,1
,,,,m,1.78616,,,,,,houses/images/107.jpg,houses/images/14.jpg,174,YF,001,2020-11-24_00h08.21.784,test2,2020.2.5,MacIntel,60,,,0,173,173,173,1
,,,,m,3.036825,,,,,,houses/images/108.jpg,houses/images/9.jpg,175,YF,001,2020-11-24_00h08.21.784,test2,2020.2.5,MacIntel,60,,,0,174,174,174,1
,,,,m,8.03045,,,,,,houses/images/109.jpg,houses/images/106.jpg,176,YF,001,2020-11-24_00h08.21.784,test2,2020.2.5,MacIntel,60,,,0,175,175,175,1
,,,,m,5.309055,,,,,,houses/images/11.jpg,houses/images/268.jpg,177,YF,001,2020-11-24_00h08.21.784,test2,2020.2.5,MacIntel,60,,,0,176,176,176,1
,,,,z,6.2704,,,,,,houses/images/210.jpg,houses/images/330.jpg,178,YF,001,2020-11-24_00h08.21.784,test2,2020.2.5,MacIntel,60,,,0,177,177,177,1
,,,,m,2.329345,,,,,,houses/images/111.jpg,houses/images/343.jpg,179,YF,001,2020-11-24_00h08.21.784,test2,2020.2.5,MacIntel,60,,,0,178,178,178,1
,,,,m,21.40562,,,,,,houses/images/112.jpg,houses/images/225.jpg,180,YF,001,2020-11-24_00h08.21.784,test2,2020.2.5,MacIntel,60,,,0,179,179,179,1
,,,,m,1.53514,,,,,,houses/images/113.jpg,houses/images/174.jpg,181,YF,001,2020-11-24_00h08.21.784,test2,2020.2.5,MacIntel,60,,,0,180,180,180,1
,,,,z,4.020505,,,,,,houses/images/114.jpg,houses/images/25.jpg,182,YF,001,2020-11-24_00h08.21.784,test2,2020.2.5,MacIntel,60,,,0,181,181,181,1
,,,,z,6.229705,,,,,,houses/images/115.jpg,houses/images/100.jpg,183,YF,001,2020-11-24_00h08.21.784,test2,2020.2.5,MacIntel,60,,,0,182,182,182,1
,,,,z,2.401445,,,,,,houses/images/116.jpg,houses/images/48.jpg,184,YF,001,2020-11-24_00h08.21.784,test2,2020.2.5,MacIntel,60,,,0,183,183,183,1
,,,,m,1.32166,,,,,,houses/images/117.jpg,houses/images/296.jpg,185,YF,001,2020-11-24_00h08.21.784,test2,2020.2.5,MacIntel,60,,,0,184,184,184,1
,,,,z,2.651955,,,,,,houses/images/118.jpg,houses/images/15.jpg,186,YF,001,2020-11-24_00h08.21.784,test2,2020.2.5,MacIntel,60,,,0,185,185,185,1
,,,,m,2.81924,,,,,,houses/images/119.jpg,houses/images/252.jpg,187,YF,001,2020-11-24_00h08.21.784,test2,2020.2.5,MacIntel,60,,,0,186,186,186,1
,,,,z,11.694505,,,,,,houses/images/12.jpg,houses/images/290.jpg,188,YF,001,2020-11-24_00h08.21.784,test2,2020.2.5,MacIntel,60,,,0,187,187,187,1
,,,,z,2.08531,,,,,,houses/images/120.jpg,houses/images/236.jpg,189,YF,001,2020-11-24_00h08.21.784,test2,2020.2.5,MacIntel,60,,,0,188,188,188,1
,,,,z,1.652375,,,,,,houses/images/121.jpg,houses/images/260.jpg,190,YF,001,2020-11-24_00h08.21.784,test2,2020.2.5,MacIntel,60,,,0,189,189,189,1
,,,,m,2.320025,,,,,,houses/images/122.jpg,houses/images/56.jpg,191,YF,001,2020-11-24_00h08.21.784,test2,2020.2.5,MacIntel,60,,,0,190,190,190,1
,,,,m,8.01319,,,,,,houses/images/123.jpg,houses/images/336.jpg,192,YF,001,2020-11-24_00h08.21.784,test2,2020.2.5,MacIntel,60,,,0,191,191,191,1
,,,,m,5.960065,,,,,,houses/images/124.jpg,houses/images/39.jpg,193,YF,001,2020-11-24_00h08.21.784,test2,2020.2.5,MacIntel,60,,,0,192,192,192,1
,,,,m,9.88717,,,,,,houses/images/225.jpg,houses/images/302.jpg,194,YF,001,2020-11-24_00h08.21.784,test2,2020.2.5,MacIntel,60,,,0,193,193,193,1
,,,,z,4.061555,,,,,,houses/images/226.jpg,houses/images/207.jpg,195,YF,001,2020-11-24_00h08.21.784,test2,2020.2.5,MacIntel,60,,,0,194,194,194,1
,,,,z,2.4114,,,,,,houses/images/127.jpg,houses/images/348.jpg,196,YF,001,2020-11-24_00h08.21.784,test2,2020.2.5,MacIntel,60,,,0,195,195,195,1
,,,,z,3.45384,,,,,,houses/images/128.jpg,houses/images/151.jpg,197,YF,001,2020-11-24_00h08.21.784,test2,2020.2.5,MacIntel,60,,,0,196,196,196,1
,,,,m,2.536215,,,,,,houses/images/129.jpg,houses/images/315.jpg,198,YF,001,2020-11-24_00h08.21.784,test2,2020.2.5,MacIntel,60,,,0,197,197,197,1
,,,,m,2.33644,,,,,,houses/images/13.jpg,houses/images/63.jpg,199,YF,001,2020-11-24_00h08.21.784,test2,2020.2.5,MacIntel,60,,,0,198,198,198,1
,,,,m,3.073985,,,,,,houses/images/307.jpg,houses/images/172.jpg,200,YF,001,2020-11-24_00h08.21.784,test2,2020.2.5,MacIntel,60,,,0,199,199,199,1
